!Mini-Circuits Laboratory
!Date: 7/15/2015 at 12:41:14 PM
!S2P DATA File Format
!Type: MMIC Amplifier
!Model: LVA-123+
!S/N: Unit 2
!Fixture: Unit soldered on TB-841+, no port extension
!PIN OUT: PORT 1 - PIN 2, PORT 2 - PIN 5, GROUND - PADDLE, NOT CONNECTED - ALL OTHER PINS
!TEST CONDITIONS: Temp= 25 (Deg C) RF Power= -25.00 (dBm) V limit=5(V) I limit=150(mA) Z=50 OHM
!PROD RUN: Q16010, DATE CODE: 1527
!WAFER/LOT#: BH175P001-02-01EV
!Network Analyzer: PNA-X N5242A S/N 71404 CAL DUE: 12/5/2015
!P.Supply/Multimeter: HP E3632A S/N 63249 CAL DUE: 12/11/2015
!
# Hz  S  dB  R  50
!Frequency    S11 dB        S11 Deg       S21 dB        S21 Deg       S12 dB        S12 Deg       S22 dB        S22 Deg       
10000000      -11.4066300   154.4464000   14.4466500    -175.1770000  -22.3704200   6.9249920     -11.1022400   -9.1142150    
20000000      -11.7873100   147.5204000   14.9331700    -171.7265000  -22.1012100   7.4876950     -11.4837900   -20.0236400   
30000000      -12.3112900   139.1699000   15.5266100    -170.2944000  -21.7828000   7.8175320     -12.0885400   -29.8833700   
40000000      -12.9803500   129.6262000   16.0629700    -170.3080000  -21.4299900   7.9337500     -12.8057700   -38.1809300   
50000000      -13.7951400   119.0167000   16.5028900    -171.2549000  -21.0522400   7.8313860     -13.6631500   -45.2922700   
60000000      -14.6731200   109.3001000   16.8301400    -172.4826000  -20.7164400   7.0862660     -14.5811100   -51.3868100   
70000000      -15.6043800   100.4131000   17.0877700    -174.0892000  -20.4462900   5.9273190     -15.5441800   -56.1677600   
80000000      -16.5687600   92.3018300    17.2748900    -175.7329000  -20.2389700   4.5452900     -16.5049800   -59.9389100   
90000000      -17.5553700   84.9857900    17.4092300    -177.3342000  -20.0879700   3.1013380     -17.4441500   -62.8851800   
100000000     -18.5323100   78.4080000    17.5055200    -178.8764000  -19.9832700   1.7251860     -18.3602800   -64.9175900   
110000000     -19.4919000   72.3534500    17.5738300    179.6745000   -19.9116000   0.4097900     -19.2371900   -66.3609400   
120000000     -20.4383600   66.7054400    17.6199200    178.3024000   -19.8646500   -0.8288463    -20.0472300   -67.2054100   
130000000     -21.3839700   61.3897300    17.6504700    177.0363000   -19.8360000   -1.9855060    -20.8009300   -67.4909400   
140000000     -22.3329800   56.5471000    17.6700500    175.8367000   -19.8203200   -3.0626180    -21.5034400   -67.1876500   
150000000     -23.2664600   52.1510200    17.6780300    174.7100000   -19.8144900   -4.0698070    -22.1465400   -66.7243100   
160000000     -24.1658100   47.9807900    17.6835400    173.6381000   -19.8155700   -5.0116010    -22.7317100   -65.5711000   
170000000     -25.0487900   43.9405400    17.6836200    172.6177000   -19.8215300   -5.8927270    -23.2150000   -64.4255800   
180000000     -25.9298400   40.0720300    17.6818100    171.6471000   -19.8301100   -6.7276450    -23.6251400   -63.0313000   
190000000     -26.8120200   36.4473500    17.6745900    170.7222000   -19.8409100   -7.5183140    -23.9671200   -61.6957300   
200000000     -27.6653100   33.1013700    17.6685200    169.8306000   -19.8533600   -8.2717570    -24.2304700   -60.1633900   
210000000     -28.4948800   29.8686900    17.6575600    168.9808000   -19.8667300   -8.9921900    -24.4533900   -59.0402800   
220000000     -29.2971700   26.6110800    17.6485500    168.1386000   -19.8801500   -9.6833820    -24.6474800   -57.6850900   
230000000     -30.1164400   23.3847900    17.6388800    167.3202000   -19.8934000   -10.3481300   -24.7760300   -56.3847900   
240000000     -30.9520700   20.2326500    17.6294200    166.5315000   -19.9064900   -10.9921800   -24.9090300   -55.2577600   
250000000     -31.7567000   17.3500000    17.6201400    165.7616000   -19.9200800   -11.6114700   -24.9599900   -54.3100000   
260000000     -32.5273600   14.5515500    17.6100800    164.9996000   -19.9332300   -12.2139700   -24.9951600   -53.4015400   
270000000     -33.3180400   11.7694000    17.6003800    164.2497000   -19.9457800   -12.8023800   -25.0139200   -52.7101500   
280000000     -34.1123200   8.9306680     17.5919100    163.5190000   -19.9576300   -13.3786200   -25.0096800   -52.1436800   
290000000     -34.9256300   6.3305280     17.5830600    162.7982000   -19.9691500   -13.9468500   -24.9847700   -51.6797300   
300000000     -35.6894600   3.9186420     17.5765300    162.0868000   -19.9805300   -14.5055500   -24.9678500   -51.4418000   
310000000     -36.4328800   1.3253530     17.5685700    161.3844000   -19.9914400   -15.0557000   -24.9529900   -51.3225000   
320000000     -37.1928500   -1.2674640    17.5592600    160.6862000   -20.0017700   -15.5978500   -24.9194200   -51.2973300   
330000000     -37.9988400   -4.4581430    17.5528700    159.9946000   -20.0117900   -16.1325400   -24.8688600   -51.2937500   
340000000     -38.8100100   -7.3992620    17.5463500    159.3252000   -20.0212200   -16.6617900   -24.8207000   -51.3318600   
350000000     -39.6171900   -10.1982800   17.5396300    158.6331000   -20.0303200   -17.1848100   -24.7720500   -51.4444400   
360000000     -40.3750000   -13.1219300   17.5329700    157.9571000   -20.0389100   -17.6997200   -24.6987400   -51.5660100   
370000000     -41.1780700   -16.6930200   17.5270800    157.2914000   -20.0468200   -18.2128600   -24.6727700   -51.8048800   
380000000     -42.0329200   -20.5961600   17.5206600    156.6206000   -20.0542400   -18.7232500   -24.6262600   -52.0977800   
390000000     -42.8625900   -24.1952800   17.5144800    155.9625000   -20.0611700   -19.2302100   -24.5707900   -52.2992500   
400000000     -43.6789100   -27.2191700   17.5092100    155.2943000   -20.0676800   -19.7354200   -24.5334700   -52.6627400   
410000000     -44.3957500   -30.6231200   17.5037000    154.6419000   -20.0739700   -20.2378100   -24.4621500   -53.0163200   
420000000     -45.1442500   -35.1318500   17.4995700    153.9849000   -20.0797800   -20.7380200   -24.4207900   -53.3388100   
430000000     -45.9952700   -39.0675000   17.4942100    153.3336000   -20.0852800   -21.2372500   -24.3695400   -53.7943700   
440000000     -46.8181700   -42.7150200   17.4905100    152.6800000   -20.0905600   -21.7350100   -24.2969400   -54.3636300   
450000000     -47.5659100   -45.9309800   17.4867500    152.0316000   -20.0958000   -22.2299200   -24.2524300   -55.0994100   
460000000     -48.1865600   -49.8618600   17.4821800    151.3885000   -20.1009100   -22.7242900   -24.1985700   -55.5402900   
470000000     -48.7267900   -54.6497000   17.4782900    150.7467000   -20.1058900   -23.2171600   -24.1482600   -56.1822200   
480000000     -49.3073300   -59.4511000   17.4746800    150.0975000   -20.1112100   -23.7040300   -24.0975400   -56.7891300   
490000000     -49.9457100   -63.7723600   17.4710000    149.4615000   -20.1163000   -24.1897000   -24.0283800   -57.4297100   
500000000     -50.5401900   -68.2380800   17.4677300    148.8139000   -20.1211800   -24.6746600   -23.9924000   -58.0322000   
510000000     -50.9555900   -72.8821300   17.4679500    148.1454000   -20.1258200   -25.1587400   -23.9553400   -58.8439700   
520000000     -51.4069800   -78.5160700   17.4638300    147.5025000   -20.1301400   -25.6430200   -23.9111200   -59.3923200   
530000000     -51.9909600   -84.4944200   17.4599000    146.8605000   -20.1344100   -26.1253700   -23.8410200   -60.1535000   
540000000     -52.8033500   -89.8143500   17.4572900    146.2203000   -20.1384000   -26.6079400   -23.8082800   -60.8428400   
550000000     -53.3591600   -95.0960500   17.4535100    145.5874000   -20.1416100   -27.0941800   -23.7670100   -61.5036400   
560000000     -53.8027700   -99.9235000   17.4513600    144.9468000   -20.1447500   -27.5799800   -23.7255800   -62.2179700   
570000000     -54.1057400   -104.8655000  17.4493100    144.3092000   -20.1477700   -28.0653100   -23.6865400   -62.9230900   
580000000     -54.6321500   -111.6041000  17.4457900    143.6796000   -20.1507900   -28.5490300   -23.6474400   -63.6279900   
590000000     -55.3702200   -115.9723000  17.4434900    143.0459000   -20.1536100   -29.0324100   -23.6142700   -64.3764300   
600000000     -56.0218000   -118.9280000  17.4415100    142.4089000   -20.1561200   -29.5168300   -23.5535000   -65.1659600   
610000000     -56.1882900   -122.3320000  17.4392800    141.7764000   -20.1584000   -30.0002500   -23.5103400   -65.9492200   
620000000     -56.4828300   -126.7206000  17.4360400    141.1462000   -20.1605300   -30.4848100   -23.4545200   -66.6546200   
630000000     -57.0259600   -131.8720000  17.4346200    140.5144000   -20.1626800   -30.9694300   -23.4125900   -67.4698700   
640000000     -57.6731800   -137.7578000  17.4323600    139.8769000   -20.1647200   -31.4540000   -23.3577500   -68.2668000   
650000000     -58.6640300   -141.6056000  17.4303800    139.2408000   -20.1666500   -31.9387100   -23.3067200   -69.1091800   
660000000     -58.9006300   -146.3552000  17.4279000    138.6099000   -20.1684800   -32.4232600   -23.2621600   -69.9897500   
670000000     -59.5182200   -154.7823000  17.4255600    137.9747000   -20.1704400   -32.9077300   -23.2179500   -70.7626200   
680000000     -60.8932700   -163.6242000  17.4234000    137.3405000   -20.1724400   -33.3923300   -23.1686500   -71.4169200   
690000000     -62.6130500   -168.4571000  17.4218700    136.7113000   -20.1743900   -33.8757700   -23.1221900   -72.1783300   
700000000     -63.5207700   -172.6742000  17.4190600    136.0848000   -20.1762700   -34.3587500   -23.0735800   -72.9560100   
710000000     -64.5066500   -176.3519000  17.4173200    135.4492000   -20.1780500   -34.8408800   -23.0298700   -73.7474800   
720000000     -64.7780500   175.4085000   17.4148700    134.8175000   -20.1797800   -35.3224600   -22.9962000   -74.5374300   
730000000     -65.5115000   164.0365000   17.4140400    134.1878000   -20.1815800   -35.8034700   -22.9458300   -75.2962800   
740000000     -65.7879100   151.1320000   17.4117200    133.5579000   -20.1832600   -36.2831300   -22.9029000   -76.0651200   
750000000     -66.2080200   132.5832000   17.4112500    132.9263000   -20.1848100   -36.7631500   -22.8572300   -76.7906000   
760000000     -66.5660600   118.1732000   17.4084000    132.2931000   -20.1864500   -37.2431800   -22.8228200   -77.5936000   
770000000     -66.4911900   98.5314800    17.4067200    131.6631000   -20.1879100   -37.7236100   -22.7748100   -78.3377400   
780000000     -66.1802700   77.9362400    17.4053500    131.0394000   -20.1893200   -38.2031600   -22.7184700   -79.2699000   
790000000     -65.5037400   60.0143900    17.4038300    130.4119000   -20.1905800   -38.6840300   -22.6717000   -80.0712400   
800000000     -64.7082800   44.6790900    17.4024400    129.7833000   -20.1917600   -39.1653100   -22.6201200   -80.8954600   
810000000     -63.8082200   35.6738200    17.4013900    129.1579000   -20.1929800   -39.6476800   -22.5602100   -81.6344800   
820000000     -61.8740400   32.9883200    17.3989700    128.5280000   -20.1941900   -40.1282300   -22.5092200   -82.4065800   
830000000     -59.5936800   23.8097500    17.3975400    127.9033000   -20.1952100   -40.6088300   -22.4533500   -83.1775900   
840000000     -57.9728900   19.4878300    17.3964800    127.2719000   -20.1962100   -41.0894600   -22.4079400   -83.8303400   
850000000     -56.5150500   16.2431000    17.3949500    126.6449000   -20.1972500   -41.5714200   -22.3544300   -84.6330300   
860000000     -55.6294300   14.9395200    17.3935600    126.0116000   -20.1983300   -42.0531400   -22.3120300   -85.3023900   
870000000     -54.6255000   15.2042700    17.3922400    125.3893000   -20.1993600   -42.5337700   -22.2620900   -86.0168500   
880000000     -53.6799800   13.9183100    17.3903600    124.7597000   -20.2001900   -43.0144500   -22.2131600   -86.8315400   
890000000     -53.0555400   12.5878300    17.3889200    124.1365000   -20.2012800   -43.4956900   -22.1776300   -87.5482900   
900000000     -52.5449000   10.2372000    17.3874500    123.5064000   -20.2022500   -43.9760400   -22.1459000   -88.2679700   
910000000     -52.3243100   8.7947590     17.3864000    122.8780000   -20.2033600   -44.4562200   -22.1110400   -89.0589900   
920000000     -51.9203000   6.9031640     17.3853500    122.2510000   -20.2043700   -44.9362400   -22.0779500   -89.8036700   
930000000     -51.4767200   5.3457850     17.3835200    121.6263000   -20.2052800   -45.4150600   -22.0329600   -90.5836300   
940000000     -51.0388800   2.0319810     17.3831300    121.0001000   -20.2061000   -45.8946000   -21.9815800   -91.3018000   
950000000     -50.8401800   -2.2282830    17.3821100    120.3756000   -20.2070600   -46.3740800   -21.9371200   -92.1547900   
960000000     -50.5311000   -5.0639340    17.3804200    119.7498000   -20.2076600   -46.8530400   -21.8901500   -92.9276000   
970000000     -50.0589200   -7.0701910    17.3792500    119.1202000   -20.2083600   -47.3325100   -21.8471300   -93.6252700   
980000000     -49.2813000   -10.5724500   17.3781900    118.4996000   -20.2091100   -47.9159900   -21.7961700   -94.4269800   
990000000     -48.4923000   -12.8186200   17.3771500    117.8732000   -20.2102400   -48.6045600   -21.7579100   -95.1139100   
1000000000    -47.7235400   -15.8903100   17.3757400    117.2442000   -20.2114700   -49.3938800   -21.7115000   -95.8736100   
1025000000    -47.0017000   -18.1676000   17.3732500    115.6768000   -20.2127600   -50.2872500   -21.6211500   -97.6562700   
1050000000    -46.0128500   -20.1706600   17.3707300    114.1181000   -20.2139100   -51.2814400   -21.5279300   -99.1513600   
1075000000    -45.0282700   -23.2076000   17.3665900    112.5440000   -20.2154100   -52.3799000   -21.3904000   -101.2659000  
1100000000    -44.0871000   -26.6730000   17.3673400    110.9821000   -20.2171300   -53.5812200   -21.2910100   -103.1108000  
1125000000    -43.2409800   -28.4998500   17.3602500    109.4111000   -20.2187200   -54.7817500   -21.1804000   -104.8397000  
1150000000    -42.4427000   -31.3553300   17.3582500    107.8445000   -20.2198000   -55.9819000   -21.0603200   -106.8090000  
1175000000    -41.6121100   -32.9471200   17.3587700    106.2859000   -20.2208600   -57.1828400   -20.9446200   -108.5279000  
1200000000    -40.8855000   -34.9743800   17.3536500    104.7266000   -20.2222400   -58.3825400   -20.8247600   -110.0373000  
1225000000    -40.1934400   -37.2282200   17.3495800    103.1659000   -20.2235100   -59.5829200   -20.7189600   -111.8677000  
1250000000    -39.5136900   -39.5944300   17.3487800    101.5878000   -20.2244100   -60.7851200   -20.6259900   -113.6347000  
1275000000    -38.8599600   -41.3943900   17.3474800    100.0255000   -20.2252500   -61.9824700   -20.5349500   -115.1931000  
1300000000    -38.3212300   -43.8323900   17.3459800    98.4621000    -20.2262100   -63.1801800   -20.4166800   -116.9760000  
1325000000    -37.7329100   -45.8541800   17.3423200    96.9009900    -20.2269800   -64.3777300   -20.2859500   -118.7556000  
1350000000    -37.1992300   -48.5366000   17.3393100    95.3196300    -20.2280200   -65.5790000   -20.1852100   -120.2968000  
1375000000    -36.6589500   -50.8118700   17.3359800    93.7670000    -20.2282900   -66.7772100   -20.0965500   -121.9660000  
1400000000    -36.1691100   -53.1147800   17.3324400    92.2215600    -20.2290900   -67.9731400   -19.9834300   -123.3831000  
1425000000    -35.7045500   -55.3879500   17.3317600    90.6481900    -20.2299100   -69.1674900   -19.9181800   -125.1322000  
1450000000    -35.2985600   -58.1487100   17.3314700    89.0737600    -20.2304900   -70.3658800   -19.8361700   -126.6612000  
1475000000    -34.8886000   -60.4996600   17.3290500    87.5117000    -20.2309300   -71.5643600   -19.7566300   -128.2807000  
1500000000    -34.5382900   -63.0827900   17.3269000    85.9911100    -20.2317000   -72.7605200   -19.6820400   -129.7563000  
1525000000    -34.1712600   -65.6849000   17.3241500    84.4126400    -20.2318700   -73.9536800   -19.6189200   -131.2933000  
1550000000    -33.8097100   -68.2798300   17.3215800    82.8590900    -20.2325300   -75.1496500   -19.5102300   -132.8324000  
1575000000    -33.4321500   -70.3324400   17.3206500    81.2998800    -20.2330100   -76.3479400   -19.4412900   -134.4778000  
1600000000    -33.0675300   -72.2460900   17.3180100    79.7330800    -20.2332500   -77.5441400   -19.3882500   -135.9926000  
1625000000    -32.7198300   -73.9952900   17.3167000    78.1862800    -20.2336300   -78.7398700   -19.3032000   -137.3462000  
1650000000    -32.3685700   -75.6118000   17.3142200    76.6295900    -20.2337500   -79.9333000   -19.2253500   -139.0206000  
1675000000    -32.0317000   -77.3276900   17.3110000    75.0700400    -20.2334700   -81.1278600   -19.1366500   -140.8027000  
1700000000    -31.6870200   -78.6430600   17.3099600    73.5007000    -20.2336000   -82.3214600   -19.0464600   -142.3656000  
1725000000    -31.3294000   -80.2906100   17.3068800    71.9480900    -20.2335400   -83.5140500   -18.9487500   -143.9845000  
1750000000    -31.0132800   -81.5970800   17.3048600    70.3726100    -20.2331700   -84.7091800   -18.8674500   -145.6082000  
1775000000    -30.7077700   -82.7361400   17.3037600    68.8043900    -20.2328100   -85.9010700   -18.7554100   -147.0751000  
1800000000    -30.3776400   -83.8697500   17.3022100    67.2702300    -20.2325200   -87.0952000   -18.6822600   -148.6796000  
1825000000    -30.0760800   -85.2436100   17.3008500    65.6859400    -20.2324500   -88.2896700   -18.6098700   -150.4670000  
1850000000    -29.7680400   -86.4167800   17.2962200    64.1334200    -20.2323100   -89.4807200   -18.5109800   -152.1670000  
1875000000    -29.4889200   -87.7540000   17.2964600    62.5637100    -20.2320300   -90.6726500   -18.3996900   -153.9391000  
1900000000    -29.1958800   -88.9286500   17.2923800    60.9983700    -20.2315600   -91.8674500   -18.3296800   -155.3815000  
1925000000    -28.9213900   -90.4643100   17.2881200    59.4548000    -20.2309800   -93.0583000   -18.2387700   -157.0170000  
1950000000    -28.6994200   -92.0392700   17.2895400    57.8856500    -20.2303300   -94.2516600   -18.1783800   -158.4932000  
1975000000    -28.5150400   -93.7161100   17.2862000    56.3335400    -20.2291900   -95.4424100   -18.1174900   -160.0528000  
2000000000    -28.3025600   -95.4817800   17.2861400    54.7718100    -20.2277000   -96.6325700   -18.0482700   -161.6774000  
2025000000    -28.1104300   -97.3403600   17.2854600    53.1997000    -20.2263900   -97.8237800   -18.0181400   -163.1803000  
2050000000    -27.9231700   -99.2545800   17.2835000    51.6562400    -20.2248300   -99.0175200   -17.9339400   -164.6749000  
2075000000    -27.7978800   -101.3054000  17.2816700    50.1026700    -20.2235400   -100.2101000  -17.8937900   -166.1921000  
2100000000    -27.6514200   -103.1955000  17.2809400    48.5260700    -20.2218400   -101.4041000  -17.8299900   -167.5771000  
2125000000    -27.4671800   -105.1741000  17.2782500    46.9616100    -20.2203500   -102.5999000  -17.7792000   -168.9744000  
2150000000    -27.2816800   -107.1415000  17.2781300    45.3957300    -20.2184300   -103.7957000  -17.7404400   -170.3740000  
2175000000    -27.1334200   -108.9040000  17.2755500    43.8496300    -20.2166600   -104.9923000  -17.6700000   -172.0201000  
2200000000    -26.9650900   -110.6534000  17.2749500    42.2679600    -20.2149800   -106.1906000  -17.6117400   -173.6943000  
2225000000    -26.7928700   -112.4632000  17.2722400    40.7101100    -20.2134200   -107.3878000  -17.5361900   -175.0615000  
2250000000    -26.5933600   -113.9817000  17.2719400    39.1408900    -20.2110700   -108.5839000  -17.4645100   -176.6022000  
2275000000    -26.4005400   -115.3971000  17.2695200    37.5798000    -20.2091100   -109.7843000  -17.3938800   -178.1219000  
2300000000    -26.2230600   -116.6320000  17.2673100    36.0028000    -20.2077300   -110.9805000  -17.3378500   -179.6276000  
2325000000    -26.0470200   -117.6958000  17.2664700    34.4530000    -20.2065800   -112.1797000  -17.2479000   178.6091000   
2350000000    -25.8621600   -118.8684000  17.2667000    32.8795900    -20.2048800   -113.3760000  -17.1897900   176.9817000   
2375000000    -25.7082100   -120.0936000  17.2603400    31.3023900    -20.2029400   -114.5737000  -17.1249300   175.4263000   
2400000000    -25.5581400   -121.2694000  17.2590800    29.7410900    -20.2003800   -115.7745000  -17.0246700   173.7620000   
2425000000    -25.4260600   -122.5788000  17.2585300    28.1820700    -20.1985300   -116.9746000  -16.9797800   172.1513000   
2450000000    -25.3099900   -123.9668000  17.2578100    26.6100000    -20.1965500   -118.1727000  -16.9327900   170.5132000   
2475000000    -25.2020300   -125.5288000  17.2558900    25.0454900    -20.1939200   -119.3745000  -16.8995200   168.8727000   
2500000000    -25.0965800   -127.2999000  17.2547300    23.4755800    -20.1914300   -120.5706000  -16.8637500   167.2509000   
2525000000    -25.0068000   -129.1678000  17.2549600    21.8977100    -20.1887100   -121.7761000  -16.8463600   165.5734000   
2550000000    -24.9084900   -131.0265000  17.2507400    20.3341000    -20.1863300   -122.9790000  -16.8080100   164.2858000   
2575000000    -24.8001800   -132.8973000  17.2472900    18.7646400    -20.1841000   -124.1774000  -16.7691200   162.9205000   
2600000000    -24.6811400   -134.9271000  17.2491400    17.1993100    -20.1816100   -125.3789000  -16.7466600   161.3950000   
2625000000    -24.5578600   -136.9944000  17.2474600    15.6302100    -20.1787800   -126.5756000  -16.7064900   159.8877000   
2650000000    -24.4379700   -138.9431000  17.2444000    14.0672000    -20.1755700   -127.7741000  -16.6788800   158.3737000   
2675000000    -24.3034700   -140.8615000  17.2449400    12.4851200    -20.1724200   -128.9767000  -16.6724200   156.8896000   
2700000000    -24.1667900   -142.5877000  17.2412200    10.9432600    -20.1696700   -130.1716000  -16.6172400   155.5738000   
2725000000    -24.0238100   -144.2965000  17.2393700    9.3683290     -20.1665000   -131.3718000  -16.5588000   154.0213000   
2750000000    -23.8951000   -145.9648000  17.2383800    7.7892370     -20.1638900   -132.5775000  -16.4862000   152.3819000   
2775000000    -23.7518700   -147.4259000  17.2374200    6.2372600     -20.1610000   -133.7766000  -16.4399500   150.8689000   
2800000000    -23.6079400   -148.8902000  17.2361500    4.6540610     -20.1577000   -134.9772000  -16.4037800   149.2170000   
2825000000    -23.4683600   -150.3130000  17.2368100    3.0784510     -20.1547200   -136.1761000  -16.3737000   147.5163000   
2850000000    -23.3449100   -151.5933000  17.2280000    1.5258890     -20.1516300   -137.3734000  -16.3174000   146.1957000   
2875000000    -23.2269900   -152.8702000  17.2318000    -0.0361569    -20.1479500   -138.5745000  -16.2763600   144.4210000   
2900000000    -23.1310500   -154.1606000  17.2295800    -1.5828350    -20.1443700   -139.7744000  -16.2028400   142.7417000   
2925000000    -23.0366900   -155.3879000  17.2271400    -3.1673320    -20.1404200   -140.9698000  -16.1561200   141.0291000   
2950000000    -22.9698300   -156.8312000  17.2275600    -4.7211080    -20.1361000   -142.1690000  -16.0973400   139.3006000   
2975000000    -22.9046900   -158.2941000  17.2272000    -6.3060850    -20.1321500   -143.3717000  -16.0670500   137.5816000   
3000000000    -22.8493600   -159.8276000  17.2232900    -7.8810030    -20.1280200   -144.5765000  -16.0504800   135.8481000   
3025000000    -22.8115800   -161.5015000  17.2215800    -9.4060960    -20.1238200   -145.7779000  -16.0248900   134.4130000   
3050000000    -22.7649700   -163.2762000  17.2213300    -11.0204900   -20.1196800   -146.9790000  -16.0271100   132.6114000   
3075000000    -22.7237100   -165.1324000  17.2213200    -12.5933800   -20.1154300   -148.1794000  -16.0266600   131.0811000   
3100000000    -22.6622700   -167.1083000  17.2193200    -14.1655700   -20.1109400   -149.3788000  -15.9908400   129.6372000   
3125000000    -22.5991200   -168.9677000  17.2188800    -15.7257700   -20.1068500   -150.5780000  -15.9907100   127.9034000   
3150000000    -22.5303700   -170.7759000  17.2170600    -17.3124200   -20.1029000   -151.7753000  -15.9747400   126.2915000   
3175000000    -22.4577100   -172.5792000  17.2133700    -18.8751600   -20.0985100   -152.9680000  -15.9651300   124.9037000   
3200000000    -22.3577100   -174.2142000  17.2129400    -20.4403600   -20.0939300   -154.1660000  -15.9300100   123.3743000   
3225000000    -22.2754200   -175.7496000  17.2124300    -22.0131700   -20.0896700   -155.3630000  -15.8921900   121.7480000   
3250000000    -22.1694500   -177.2029000  17.2110600    -23.5710600   -20.0851300   -156.5597000  -15.8444100   120.1071000   
3275000000    -22.0928500   -178.5925000  17.2071800    -25.1149000   -20.0801600   -157.7544000  -15.8135000   118.4561000   
3300000000    -22.0163700   -179.9143000  17.2089900    -26.6964900   -20.0750900   -158.9521000  -15.7380200   116.7536000   
3325000000    -21.9602100   178.8796000   17.2046000    -28.2657600   -20.0701300   -160.1533000  -15.7108900   115.0740000   
3350000000    -21.8951300   177.7017000   17.2046200    -29.8406100   -20.0654800   -161.3534000  -15.6585400   113.4230000   
3375000000    -21.8663700   176.4634000   17.2028100    -31.4261800   -20.0602600   -162.5580000  -15.6223200   111.8043000   
3400000000    -21.8488500   175.2499000   17.2006000    -33.0065800   -20.0552200   -163.7611000  -15.5871400   109.9132000   
3425000000    -21.8516000   173.9303000   17.1986800    -34.5484700   -20.0500400   -164.9652000  -15.5569200   108.2600000   
3450000000    -21.8499700   172.4585000   17.1984100    -36.1350600   -20.0452800   -166.1715000  -15.5254600   106.3326000   
3475000000    -21.8543500   170.8462000   17.1964100    -37.7176100   -20.0401500   -167.3807000  -15.5084100   104.5541000   
3500000000    -21.8534000   169.0708000   17.1954700    -39.2977400   -20.0344900   -168.5884000  -15.4898500   102.8443000   
3525000000    -21.8737800   167.3074000   17.1953400    -40.8765600   -20.0288000   -169.8020000  -15.5117100   101.4503000   
3550000000    -21.8713400   165.4249000   17.1948800    -42.4540600   -20.0229400   -171.0108000  -15.5015700   99.7024700    
3575000000    -21.8630300   163.3200000   17.1937100    -44.0573300   -20.0166600   -172.2234000  -15.5250700   97.8239700    
3600000000    -21.8553600   161.2063000   17.1920500    -45.6514100   -20.0105300   -173.4364000  -15.5680200   96.2309300    
3625000000    -21.8495500   159.2283000   17.1924200    -47.2128400   -20.0038700   -174.6521000  -15.5378800   94.4930300    
3650000000    -21.8306700   157.3450000   17.1923800    -48.7808600   -19.9980500   -175.8656000  -15.5315600   92.8026300    
3675000000    -21.8004800   155.5330000   17.1896800    -50.4011200   -19.9919700   -177.0786000  -15.5326800   91.1194900    
3700000000    -21.7608800   153.7028000   17.1896400    -51.9754900   -19.9860000   -178.2878000  -15.5081100   89.4352200    
3725000000    -21.7225300   152.0148000   17.1859000    -53.5688600   -19.9802400   -179.4966000  -15.5292600   87.8332400    
3750000000    -21.6880300   150.4344000   17.1854100    -55.1346100   -19.9743200   179.2933000   -15.5004800   85.9900400    
3775000000    -21.6520600   149.0536000   17.1833800    -56.7012400   -19.9682200   178.0829000   -15.4903800   84.2274100    
3800000000    -21.6093100   147.7041000   17.1801100    -58.2788100   -19.9627700   176.8777000   -15.4383800   82.5304900    
3825000000    -21.5889800   146.4543000   17.1823600    -59.8700600   -19.9567500   175.6703000   -15.3880300   80.6245700    
3850000000    -21.5802500   145.2372000   17.1791900    -61.4551600   -19.9506500   174.4635000   -15.3364000   78.7061000    
3875000000    -21.5757400   143.9840000   17.1758900    -63.0250200   -19.9438500   173.2569000   -15.3236600   77.0842100    
3900000000    -21.6062000   142.6660000   17.1722400    -64.5942900   -19.9368600   172.0413000   -15.2876800   75.2445300    
3925000000    -21.6311000   141.3587000   17.1713300    -66.1982300   -19.9307800   170.8323000   -15.2402200   73.3171400    
3950000000    -21.6811400   139.8450000   17.1751000    -67.7553700   -19.9241000   169.6180000   -15.2359100   71.4008100    
3975000000    -21.7260700   138.2391000   17.1721900    -69.3755000   -19.9167000   168.3963000   -15.2336300   69.2629400    
4000000000    -21.7793600   136.4636000   17.1704600    -70.9530900   -19.9099800   167.1785000   -15.2478700   67.4928700    
4025000000    -21.8400300   134.5657000   17.1705200    -72.5601300   -19.9032000   165.9527000   -15.2344300   65.5088400    
4050000000    -21.9255100   132.5571000   17.1691900    -74.1414400   -19.8954700   164.7229000   -15.2445800   63.6211300    
4075000000    -21.9778100   130.4974000   17.1624400    -75.7609300   -19.8884100   163.4923000   -15.3138100   61.7522900    
4100000000    -22.0278600   128.4442000   17.1599400    -77.3621700   -19.8807200   162.2647000   -15.3373100   59.9252700    
4125000000    -22.0732400   126.2373000   17.1667600    -78.9629700   -19.8732700   161.0334000   -15.3360800   57.8761000    
4150000000    -22.1140200   124.1201000   17.1624400    -80.5331000   -19.8664600   159.8090000   -15.4023600   55.7753000    
4175000000    -22.1458200   121.8941000   17.1605000    -82.1218300   -19.8578000   158.5800000   -15.4363800   54.0609600    
4200000000    -22.1774900   119.8035000   17.1612700    -83.7746100   -19.8501100   157.3542000   -15.4484300   51.9590300    
4225000000    -22.1818100   117.7373000   17.1536800    -85.3664200   -19.8435200   156.1251000   -15.4503000   50.4022500    
4250000000    -22.1927800   115.8203000   17.1550000    -86.9557600   -19.8361100   154.9037000   -15.4074600   48.4632500    
4275000000    -22.2173500   114.0349000   17.1483300    -88.5526300   -19.8292700   153.6732000   -15.4364300   46.5977400    
4300000000    -22.2175200   112.3985000   17.1480600    -90.1508300   -19.8212800   152.4518000   -15.4217900   44.6534100    
4325000000    -22.2550200   110.8335000   17.1461900    -91.7614900   -19.8126600   151.2172000   -15.4125600   42.7350700    
4350000000    -22.3009300   109.5272000   17.1397200    -93.3696100   -19.8053900   149.9884000   -15.3864400   40.6463100    
4375000000    -22.3472000   108.1611000   17.1427900    -94.9406000   -19.7966500   148.7601000   -15.2714400   38.6854100    
4400000000    -22.4269300   106.9373000   17.1415500    -96.6024600   -19.7877200   147.5224000   -15.2191300   36.4824400    
4425000000    -22.5526100   105.7583000   17.1367300    -98.1721900   -19.7800200   146.2775000   -15.1465800   34.6796100    
4450000000    -22.6685700   104.4616000   17.1397300    -99.7656200   -19.7718300   145.0467000   -15.1039400   32.6418300    
4475000000    -22.8234800   102.9768000   17.1355000    -101.4040000  -19.7637600   143.8119000   -15.0848600   30.2370200    
4500000000    -22.9798900   101.4101000   17.1243900    -103.0505000  -19.7558800   142.5824000   -15.0835700   27.9623200    
4525000000    -23.1549300   99.6615100    17.1251800    -104.5613000  -19.7476400   141.3462000   -15.0489700   26.0984600    
4550000000    -23.3219700   97.7745400    17.1314300    -106.2092000  -19.7407700   140.1057000   -14.9736800   23.7302200    
4575000000    -23.4603600   95.6208500    17.1244800    -107.8202000  -19.7335800   138.8786000   -14.9817800   21.6271900    
4600000000    -23.5806400   93.0938500    17.1182700    -109.4212000  -19.7252400   137.6551000   -14.9803000   19.6884500    
4625000000    -23.7207600   90.5488200    17.1138400    -111.0275000  -19.7168100   136.4118000   -15.0316400   17.8042400    
4650000000    -23.8026000   88.0012800    17.1116500    -112.6207000  -19.7085500   135.1781000   -15.0493500   15.7637300    
4675000000    -23.8892700   85.3567700    17.1115300    -114.2431000  -19.6996200   133.9386000   -15.0967300   13.5287500    
4700000000    -23.9548100   82.5556900    17.1060400    -115.8577000  -19.6907800   132.6938000   -15.1196500   11.3368300    
4725000000    -24.0240700   79.9376800    17.1103200    -117.4247000  -19.6816400   131.4618000   -15.0683100   9.3346570     
4750000000    -24.1027800   77.3712500    17.1062200    -119.0690000  -19.6726600   130.2243000   -15.0442400   7.2150620     
4775000000    -24.1751000   75.0988300    17.1007800    -120.7120000  -19.6641200   128.9872000   -15.0471800   5.1424300     
4800000000    -24.2349800   72.7399700    17.0984700    -122.2734000  -19.6546600   127.7512000   -15.0484100   3.4830340     
4825000000    -24.3634200   70.8723100    17.0967300    -123.8871000  -19.6463600   126.5062000   -15.0236300   1.4055950     
4850000000    -24.4996600   68.9255900    17.0925900    -125.4886000  -19.6382900   125.2640000   -14.9773500   -0.6657275    
4875000000    -24.6747900   67.2132700    17.0921600    -127.1086000  -19.6299900   124.0238000   -14.9016300   -2.8656580    
4900000000    -24.8759100   65.5237000    17.0834700    -128.7424000  -19.6217100   122.7748000   -14.8357300   -4.9892630    
4925000000    -25.1183900   63.9340700    17.0836500    -130.3793000  -19.6128100   121.5242000   -14.7433600   -7.1413410    
4950000000    -25.4434400   62.1409500    17.0757000    -132.0094000  -19.6040000   120.2538000   -14.6797000   -9.2374230    
4975000000    -25.7937700   60.3042400    17.0710200    -133.5995000  -19.5959000   118.9901000   -14.6131700   -11.2938200   
5000000000    -26.1547000   57.9993300    17.0696000    -135.2225000  -19.5882400   117.7310000   -14.5438100   -13.5961300   
5025000000    -26.5294500   55.3831500    17.0542600    -136.9348000  -19.5800900   116.4666000   -14.4887800   -16.3323000   
5050000000    -26.8775900   52.2276800    17.0556700    -138.5086000  -19.5717100   115.2055000   -14.4091700   -18.3013900   
5075000000    -27.2530900   48.5966100    17.0494000    -140.1281000  -19.5636300   113.9362000   -14.3389900   -20.4382600   
5100000000    -27.5584400   44.2845000    17.0491100    -141.7722000  -19.5563000   112.6650000   -14.2908300   -22.7820000   
5125000000    -27.7592500   39.5967400    17.0428500    -143.3949000  -19.5482400   111.4118000   -14.2715700   -24.9294600   
5150000000    -27.9113500   34.5747800    17.0385800    -145.0338000  -19.5402100   110.1475000   -14.2704500   -27.3804500   
5175000000    -27.9595900   29.3404000    17.0323200    -146.6772000  -19.5303800   108.8807000   -14.2880000   -29.6339900   
5200000000    -27.9459700   23.9952400    17.0277400    -148.3035000  -19.5208600   107.6045000   -14.2818600   -31.7742100   
5225000000    -27.8798100   19.0796400    17.0202400    -149.9302000  -19.5124000   106.3320000   -14.2865300   -33.8604700   
5250000000    -27.7624400   14.3274700    17.0180900    -151.5792000  -19.5031600   105.0657000   -14.2434300   -35.9090100   
5275000000    -27.6506600   9.9952340     17.0115700    -153.2716000  -19.4941300   103.7976000   -14.2386700   -38.3359900   
5300000000    -27.5586000   5.7616000     17.0059200    -154.8651000  -19.4851000   102.5296000   -14.2569800   -40.2408100   
5325000000    -27.4911100   2.0243900     16.9991300    -156.4999000  -19.4774700   101.2636000   -14.2314300   -42.2573800   
5350000000    -27.4322400   -1.6590240    16.9919900    -158.1173000  -19.4697700   100.0022000   -14.2075800   -44.5266600   
5375000000    -27.3811600   -5.1093400    16.9903100    -159.7671000  -19.4626500   98.7458500    -14.1462200   -46.6159400   
5400000000    -27.3726200   -8.8492710    16.9728200    -161.3786000  -19.4549400   97.4810900    -14.1531600   -48.6951600   
5425000000    -27.3782700   -12.6122400   16.9751200    -162.9899000  -19.4470800   96.2139200    -14.0522900   -50.4268300   
5450000000    -27.4177400   -16.4580100   16.9677800    -164.6518000  -19.4392200   94.9465300    -13.9831100   -52.8610200   
5475000000    -27.4487200   -20.5617900   16.9578600    -166.2805000  -19.4313300   93.6707500    -13.9334000   -54.9124800   
5500000000    -27.5095100   -25.2968100   16.9531300    -167.9263000  -19.4236800   92.3844000    -13.8486100   -56.9646900   
5525000000    -27.5092500   -29.9691000   16.9427700    -169.5501000  -19.4160600   91.1011300    -13.7733000   -59.1572600   
5550000000    -27.4985100   -34.9200700   16.9378900    -171.2349000  -19.4084700   89.8104600    -13.6647000   -61.4900000   
5575000000    -27.4163500   -40.0507800   16.9139300    -172.8598000  -19.4007700   88.5165700    -13.6320300   -63.9609800   
5600000000    -27.3055900   -45.1841700   16.9242100    -174.4963000  -19.3945200   87.2312900    -13.4976800   -65.7557300   
5625000000    -27.0962900   -50.3927800   16.9086000    -176.1821000  -19.3881600   85.9397900    -13.4276900   -68.3917400   
5650000000    -26.7994900   -55.3782000   16.8995800    -177.8675000  -19.3822400   84.6480100    -13.3542200   -70.8523900   
5675000000    -26.3999300   -60.2188800   16.8901200    -179.4681000  -19.3750000   83.3547700    -13.3197200   -72.7774700   
5700000000    -26.0639100   -64.4958800   16.8816100    178.8472000   -19.3705000   82.0524700    -13.2536100   -75.1771800   
5725000000    -25.6634200   -68.2257800   16.8711600    177.1909000   -19.3651700   80.7596100    -13.1728800   -77.5486000   
5750000000    -25.3171000   -71.4868200   16.8551100    175.4637000   -19.3607900   79.4646300    -13.1386800   -79.8699000   
5775000000    -24.9605800   -74.5005600   16.8452300    173.8902000   -19.3552400   78.1548200    -13.1118200   -81.7314800   
5800000000    -24.6957100   -77.2139100   16.8390400    172.1879000   -19.3504100   76.8560500    -13.0438300   -83.7999900   
5825000000    -24.4589600   -79.6108100   16.8203500    170.5477000   -19.3457100   75.5645100    -13.0136600   -85.8079100   
5850000000    -24.2744400   -81.9449800   16.8120000    168.9028000   -19.3407000   74.2695800    -12.9410700   -87.6792100   
5875000000    -24.0787200   -84.7184000   16.7971700    167.2601000   -19.3336500   72.9743000    -12.9031700   -89.5832100   
5900000000    -23.9620200   -87.3156600   16.7924600    165.6283000   -19.3287700   71.6829500    -12.8275700   -91.2838600   
5925000000    -23.8438600   -90.2422200   16.7753700    163.9271000   -19.3237000   70.3900800    -12.7372700   -93.4771300   
5950000000    -23.7100600   -93.1496400   16.7663400    162.2765000   -19.3174800   69.0999400    -12.6251900   -95.2645700   
5975000000    -23.5469500   -96.2047900   16.7558600    160.6908000   -19.3123700   67.8133900    -12.5649800   -97.1506200   
6000000000    -23.3849100   -99.5477900   16.7351700    159.0271000   -19.3087200   66.5075900    -12.5016300   -99.0609900   
6025000000    -23.1735900   -102.5984000  16.7376600    157.3740000   -19.3028600   65.1994100    -12.3892000   -100.8562000  
6050000000    -22.9703800   -105.6818000  16.7163200    155.7065000   -19.2989600   63.8959200    -12.3143100   -103.0663000  
6075000000    -22.7331700   -108.9609000  16.6973500    154.1544000   -19.2954100   62.5866500    -12.2645600   -105.1448000  
6100000000    -22.4641600   -111.9964000  16.6949100    152.3912000   -19.2906100   61.2687800    -12.0991800   -107.0854000  
6125000000    -22.2088900   -114.9751000  16.6735200    150.7383000   -19.2900600   59.9739600    -12.0117400   -109.1664000  
6150000000    -21.9283000   -117.8064000  16.6522700    149.1228000   -19.2883900   58.6584300    -11.9493800   -111.3143000  
6175000000    -21.6519900   -120.4364000  16.6247400    147.4169000   -19.2875000   57.3563200    -11.8598000   -113.5017000  
6200000000    -21.3582600   -122.7240000  16.6322000    145.8988000   -19.2856000   56.0845300    -11.8627800   -115.1015000  
6225000000    -21.0652300   -124.7516000  16.6093800    144.2526000   -19.2824900   54.7962700    -11.8053800   -117.4372000  
6250000000    -20.7744900   -126.8074000  16.5862200    142.6393000   -19.2796000   53.4875100    -11.7867800   -119.4719000  
6275000000    -20.5007900   -128.5046000  16.5979800    140.8846000   -19.2766300   52.2040100    -11.6484000   -121.0419000  
6300000000    -20.2561200   -130.2673000  16.5772900    139.2211000   -19.2733900   50.8916800    -11.5667300   -123.0459000  
6325000000    -20.0176300   -131.9587000  16.5403300    137.5144000   -19.2689500   49.5858600    -11.5248100   -125.4013000  
6350000000    -19.7989300   -133.5925000  16.5408300    135.9058000   -19.2641900   48.2724600    -11.4659400   -126.8314000  
6375000000    -19.6503900   -135.3701000  16.5228600    134.3396000   -19.2635500   46.9677800    -11.4606800   -128.7642000  
6400000000    -19.4981200   -137.1700000  16.5027800    132.6360000   -19.2622200   45.6671300    -11.3982100   -130.5483000  
6425000000    -19.3650600   -138.8721000  16.4799400    130.9803000   -19.2607700   44.3823800    -11.3359600   -132.4640000  
6450000000    -19.2247600   -140.7504000  16.4817400    129.4608000   -19.2587300   43.0740900    -11.3145600   -133.7061000  
6475000000    -19.0740600   -142.7412000  16.4703400    127.7514000   -19.2557500   41.7833800    -11.2076400   -135.3989000  
6500000000    -18.9220000   -144.7231000  16.4492700    126.1523000   -19.2538300   40.5072900    -11.1588800   -137.3605000  
6525000000    -18.7523100   -146.6031000  16.4369100    124.4791000   -19.2498000   39.2353300    -11.0537900   -138.9877000  
6550000000    -18.5344000   -148.6238000  16.4204600    122.8211000   -19.2448300   37.9281300    -11.0141500   -140.7353000  
6575000000    -18.3246500   -150.6585000  16.4039200    121.1926000   -19.2416300   36.6062200    -10.9602700   -142.4387000  
6600000000    -18.1100500   -152.5938000  16.3931300    119.5200000   -19.2381500   35.3012900    -10.8562800   -144.4278000  
6625000000    -17.9157700   -154.5806000  16.3699700    117.7902000   -19.2402500   33.9881400    -10.7549800   -146.5751000  
6650000000    -17.6985700   -156.4123000  16.3450000    116.1162000   -19.2395500   32.6778900    -10.6706900   -148.6613000  
6675000000    -17.4794100   -158.1099000  16.3337300    114.5235000   -19.2374100   31.3675900    -10.6141700   -150.2699000  
6700000000    -17.2499100   -159.8613000  16.2983500    112.9564000   -19.2365100   30.0479000    -10.6048200   -152.5979000  
6725000000    -17.0381500   -161.5248000  16.2905900    111.2833000   -19.2372900   28.7290200    -10.5223400   -154.0873000  
6750000000    -16.8391600   -163.0742000  16.2915900    109.5951000   -19.2395300   27.4316500    -10.4506800   -155.6940000  
6775000000    -16.6428300   -164.5573000  16.2568600    107.8992000   -19.2415300   26.1179600    -10.4043300   -157.9657000  
6800000000    -16.4484300   -165.8489000  16.2300800    106.2553000   -19.2388600   24.8333000    -10.3665100   -160.0661000  
6825000000    -16.2825200   -167.2016000  16.2081900    104.6672000   -19.2374800   23.5281600    -10.3413000   -161.8909000  
6850000000    -16.1331300   -168.6766000  16.1881300    102.9826000   -19.2369700   22.2014600    -10.2846700   -163.6116000  
6875000000    -16.0022500   -170.1936000  16.1783500    101.3344000   -19.2365200   20.8808100    -10.2150900   -164.9989000  
6900000000    -15.9041700   -171.7578000  16.1620700    99.6781300    -19.2376600   19.6032600    -10.1713000   -166.4140000  
6925000000    -15.7948300   -173.3642000  16.1436100    98.0903200    -19.2360200   18.2870800    -10.1037300   -167.9189000  
6950000000    -15.6904300   -175.0467000  16.1117200    96.2879000    -19.2342500   16.9841400    -10.0630200   -169.9654000  
6975000000    -15.5803500   -176.9078000  16.0979000    94.8336500    -19.2351100   15.6681700    -10.0472200   -171.1468000  
7000000000    -15.4693200   -178.7645000  16.0743400    93.1186500    -19.2353400   14.3576500    -9.9527590    -173.2253000  
7025000000    -15.3648100   179.3705000   16.0572500    91.4648700    -19.2377300   13.0532100    -9.8778100    -174.7066000  
7050000000    -15.2668500   177.5800000   16.0282600    89.8400300    -19.2392100   11.7592100    -9.8261050    -176.2189000  
7075000000    -15.1277100   175.7303000   16.0181400    88.1563000    -19.2372300   10.4151700    -9.7299690    -177.5802000  
7100000000    -15.0067400   173.8663000   15.9958500    86.5540500    -19.2390100   9.1150050     -9.6893210    -179.2296000  
7125000000    -14.8750900   172.0159000   15.9794300    84.8799500    -19.2419100   7.8033900     -9.6070670    179.1224000   
7150000000    -14.7266900   170.1954000   15.9439000    83.1483800    -19.2432600   6.4820340     -9.5162490    177.1389000   
7175000000    -14.5569300   168.3468000   15.9282900    81.6126500    -19.2462000   5.1509820     -9.4732670    175.5661000   
7200000000    -14.3805000   166.5774000   15.9004700    79.9690900    -19.2490500   3.8236970     -9.4011750    173.6657000   
7225000000    -14.1961800   164.9686000   15.8643500    78.2646500    -19.2532000   2.5062130     -9.3236070    171.7625000   
7250000000    -14.0252800   163.5218000   15.8355500    76.5955500    -19.2584800   1.1958510     -9.2712430    170.0543000   
7275000000    -13.8598300   162.1409000   15.8109600    74.9935800    -19.2662000   -0.1245714    -9.2349210    168.2854000   
7300000000    -13.6972300   160.8828000   15.8007900    73.3813900    -19.2701500   -1.4370940    -9.2116630    166.5492000   
7325000000    -13.5674700   159.6996000   15.7639800    71.7099500    -19.2758400   -2.7467000    -9.1757240    164.5535000   
7350000000    -13.4602900   158.6557000   15.7357600    70.2508900    -19.2804000   -4.0522560    -9.2093190    162.8279000   
7375000000    -13.3661700   157.5626000   15.7191100    68.4774000    -19.2831600   -5.3542110    -9.1407500    161.3497000   
7400000000    -13.2946100   156.3154000   15.6854800    66.8918800    -19.2866000   -6.6733070    -9.1261640    159.7455000   
7425000000    -13.2354200   154.9962000   15.6700600    65.1758600    -19.2899000   -7.9979340    -9.0694150    158.3919000   
7450000000    -13.1675900   153.6165000   15.6516400    63.5180500    -19.2865300   -9.3034510    -9.0438370    157.1810000   
7475000000    -13.1123500   152.0455000   15.6205300    61.9311100    -19.2875200   -10.6340900   -9.0351480    155.6551000   
7500000000    -13.0580800   150.5320000   15.6011100    60.2967300    -19.2886800   -11.9376800   -8.9871610    154.1487000   
7525000000    -12.9997000   148.8463000   15.5776800    58.6354900    -19.2907100   -13.2452600   -8.9218260    152.8945000   
7550000000    -12.9440600   147.1593000   15.5358800    57.0718900    -19.2947300   -14.5501000   -8.8992490    151.1956000   
7575000000    -12.8788100   145.5220000   15.5355200    55.4973300    -19.2957400   -15.8365500   -8.8644600    150.1113000   
7600000000    -12.8140300   143.8231000   15.4994700    53.7729300    -19.2987300   -17.1137200   -8.7949050    148.6071000   
7625000000    -12.7447100   142.1157000   15.4764000    52.2146300    -19.3030200   -18.4136300   -8.7518480    147.3100000   
7650000000    -12.6581500   140.5187000   15.4660400    50.4497900    -19.3057600   -19.6896700   -8.6591160    146.0469000   
7675000000    -12.5520000   138.8230000   15.4305000    48.9344700    -19.3073400   -20.9942200   -8.6306850    144.4371000   
7700000000    -12.4320500   137.1344000   15.3982600    47.3007300    -19.3114200   -22.3068600   -8.5631400    142.7463000   
7725000000    -12.3040000   135.5936000   15.3747400    45.6064100    -19.3159900   -23.6101900   -8.5039020    141.1929000   
7750000000    -12.1701800   134.1400000   15.3340100    43.9525100    -19.3232400   -24.9204600   -8.4398860    139.4979000   
7775000000    -12.0425700   132.8647000   15.2792300    42.4106900    -19.3325500   -26.2131800   -8.4326330    137.6023000   
7800000000    -11.9123900   131.7586000   15.2719000    40.8788400    -19.3406100   -27.4927200   -8.4257800    136.1515000   
7825000000    -11.7971500   130.6962000   15.2490200    39.2820300    -19.3491600   -28.7830400   -8.3976270    134.5628000   
7850000000    -11.6983000   129.7607000   15.2230200    37.8647500    -19.3575000   -30.0623000   -8.4405960    132.9339000   
7875000000    -11.6296500   128.9487000   15.2009900    36.1468200    -19.3655000   -31.3280800   -8.4109830    131.3812000   
7900000000    -11.5704300   128.0617000   15.1596600    34.5134200    -19.3706200   -32.6091000   -8.4085550    129.6531000   
7925000000    -11.5262000   127.0760000   15.1298400    32.9182000    -19.3741400   -33.9008300   -8.3939850    128.1407000   
7950000000    -11.4878400   125.9927000   15.1129400    31.3612800    -19.3741500   -35.1993100   -8.3952300    126.8739000   
7975000000    -11.4615400   124.7770000   15.0963200    29.6265300    -19.3765900   -36.5006500   -8.3368820    125.6283000   
8000000000    -11.4403800   123.5025000   15.0656000    28.0173300    -19.3792600   -37.7971600   -8.3282790    124.2196000   
8025000000    -11.4133700   122.0920000   15.0431900    26.4607000    -19.3827400   -39.1071200   -8.3199600    122.9405000   
8050000000    -11.3825700   120.6152000   15.0225000    24.8556800    -19.3865800   -40.4029000   -8.3107380    121.7163000   
8075000000    -11.3450200   119.1299000   14.9925900    23.2825400    -19.3911400   -41.6887200   -8.2912820    120.1813000   
8100000000    -11.2965300   117.5924000   14.9489800    21.6208300    -19.3942400   -42.9925300   -8.2500190    118.5243000   
8125000000    -11.2382000   116.0052000   14.9372700    20.1022100    -19.3993400   -44.3040100   -8.2241530    117.4035000   
8150000000    -11.1784200   114.4191000   14.9266400    18.3864000    -19.4056500   -45.6161000   -8.1553480    116.2927000   
8175000000    -11.1076800   112.8761000   14.8812900    16.6400100    -19.4107200   -46.9190900   -8.0718490    114.7335000   
8200000000    -11.0368300   111.3386000   14.8471000    15.1242100    -19.4177000   -48.2260000   -8.0681120    113.2901000   
8225000000    -10.9557700   109.8215000   14.8229200    13.5916800    -19.4232600   -49.5469300   -8.0578320    111.8508000   
8250000000    -10.8778000   108.3329000   14.7900300    11.9104700    -19.4308500   -50.8688400   -8.0088620    110.3334000   
8275000000    -10.8010600   106.9249000   14.7428500    10.3955100    -19.4407700   -52.1685600   -7.9909380    108.6658000   
8300000000    -10.7231100   105.5743000   14.7076800    8.7376720     -19.4485800   -53.4751800   -7.9416270    107.2031000   
8325000000    -10.6521300   104.2610000   14.6945100    7.1343990     -19.4569200   -54.7804500   -7.9184790    106.0887000   
8350000000    -10.5886500   103.0202000   14.6626200    5.4812480     -19.4669100   -56.0782500   -7.8873890    104.7642000   
8375000000    -10.5256300   101.8409000   14.6195700    3.9227110     -19.4747500   -57.3698700   -7.8855850    103.2523000   
8400000000    -10.4720800   100.6936000   14.5935400    2.4694210     -19.4819100   -58.6580100   -7.9180760    101.8432000   
8425000000    -10.4224400   99.5283400    14.5813200    0.8112339     -19.4862500   -59.9575000   -7.9212730    100.5612000   
8450000000    -10.3874200   98.3394600    14.5373800    -0.7379286    -19.4913900   -61.2612500   -7.9232660    99.1137100    
8475000000    -10.3554200   97.1790400    14.5172700    -2.4096600    -19.4963400   -62.5487100   -7.8837580    97.9128700    
8500000000    -10.3146700   95.9322500    14.4820600    -4.1030280    -19.4978500   -63.8604900   -7.8460950    96.5500700    
8525000000    -10.2811100   94.6075600    14.4660200    -5.6724400    -19.5008200   -65.1829500   -7.8530550    95.4738300    
8550000000    -10.2490000   93.2988800    14.4489600    -7.3085960    -19.5033100   -66.4860100   -7.8609890    94.2652400    
8575000000    -10.2090300   91.9606600    14.4000100    -8.8450760    -19.5064100   -67.7948800   -7.8661200    92.6479600    
8600000000    -10.1703500   90.5497400    14.3800500    -10.4029000   -19.5122100   -69.1149400   -7.8642890    91.2905900    
8625000000    -10.1227800   89.1377000    14.3578600    -12.0981600   -19.5177500   -70.4296900   -7.8184440    89.9959800    
8650000000    -10.0699300   87.6545100    14.3247400    -13.8185400   -19.5243400   -71.7669600   -7.7744360    88.5963700    
8675000000    -10.0071200   86.1962700    14.2890000    -15.4199900   -19.5311200   -73.0818200   -7.7488160    87.1905100    
8700000000    -9.9364420    84.7530300    14.2673600    -17.1072200   -19.5398300   -74.3924800   -7.7129010    85.9301400    
8725000000    -9.8572450    83.3821600    14.2354800    -18.5822000   -19.5496700   -75.6929200   -7.7008540    84.5257200    
8750000000    -9.7723230    82.0321400    14.1847200    -20.3349600   -19.5586900   -76.9937800   -7.6531450    82.8980200    
8775000000    -9.6888390    80.7678400    14.1577400    -21.7210500   -19.5684800   -78.2950200   -7.6828900    81.4557600    
8800000000    -9.6111720    79.5540600    14.1359900    -23.3894600   -19.5782700   -79.5915800   -7.6599810    80.1383500    
8825000000    -9.5396520    78.4263900    14.0789100    -25.0577700   -19.5878500   -80.8650800   -7.6342120    78.6438000    
8850000000    -9.4813070    77.3439300    14.0401500    -26.5214200   -19.5998300   -82.1458600   -7.6518040    77.1611600    
8875000000    -9.4176270    76.2965100    14.0120300    -28.2096200   -19.6071100   -83.4143700   -7.6152220    75.9932500    
8900000000    -9.3628170    75.2261400    13.9878700    -29.7616100   -19.6137600   -84.6933300   -7.6145940    74.7612500    
8925000000    -9.3241440    74.1661600    13.9450300    -31.2548200   -19.6225800   -85.9816500   -7.6354760    73.3290000    
8950000000    -9.2959100    73.1361400    13.9134300    -32.8296500   -19.6309200   -87.2502300   -7.6432080    72.2029900    
8975000000    -9.2684010    72.1053800    13.8827900    -34.3686500   -19.6385200   -88.5212300   -7.6524410    71.0601400    
9000000000    -9.2505210    71.0115800    13.8419800    -35.8396000   -19.6450000   -89.8073100   -7.6820750    69.7607500    
9025000000    -9.2359160    69.8927100    13.8185800    -37.3654800   -19.6502700   -91.0891300   -7.6926020    68.6161700    
9050000000    -9.2310720    68.7301300    13.7928200    -39.0365000   -19.6577400   -92.3841900   -7.6785850    67.5215500    
9075000000    -9.2256870    67.5061000    13.7546700    -40.6012700   -19.6647500   -93.6898200   -7.6652270    66.2246200    
9100000000    -9.2146570    66.2916300    13.7255400    -42.2009500   -19.6716700   -94.9825100   -7.6769670    65.0666300    
9125000000    -9.1961200    64.9791000    13.7126800    -43.7646100   -19.6773800   -96.2841000   -7.6859850    63.9534600    
9150000000    -9.1746890    63.6445200    13.6706500    -45.3261500   -19.6826300   -97.5869900   -7.6914940    62.6801300    
9175000000    -9.1429440    62.3051800    13.6416600    -46.9494400   -19.6889600   -98.8874400   -7.6851040    61.4024100    
9200000000    -9.1133040    60.9944600    13.5917100    -48.5235600   -19.7003900   -100.1847000  -7.6780400    60.0337800    
9225000000    -9.0719670    59.6833100    13.5565300    -50.2473000   -19.7089800   -101.4814000  -7.6351710    58.7748800    
9250000000    -9.0228360    58.4063300    13.5237000    -51.8494800   -19.7183100   -102.7667000  -7.6324390    57.5263700    
9275000000    -8.9731540    57.1745500    13.5155800    -53.3064100   -19.7267000   -104.0474000  -7.6658990    56.3972200    
9300000000    -8.9217410    56.0357000    13.4659200    -54.8909100   -19.7359000   -105.3296000  -7.6619760    54.9854200    
9325000000    -8.8871870    54.9551500    13.4202900    -56.4721700   -19.7499600   -106.6155000  -7.6612520    53.7233000    
9350000000    -8.8518110    53.9597300    13.3753600    -57.9126500   -19.7618900   -107.8715000  -7.6782940    52.3478200    
9375000000    -8.8247480    52.9587400    13.3439500    -59.3954200   -19.7703100   -109.1525000  -7.6970680    51.1881400    
9400000000    -8.8017680    51.9513500    13.3330700    -60.8153300   -19.7786400   -110.4116000  -7.7370620    50.0342800    
9425000000    -8.7965890    50.9701100    13.2815700    -62.5648500   -19.7882300   -111.6803000  -7.6995630    48.9412000    
9450000000    -8.7977510    49.9350500    13.2670800    -63.8740300   -19.7972200   -112.9609000  -7.7574280    47.7068900    
9475000000    -8.8055100    48.9530100    13.2048400    -65.5655800   -19.8089000   -114.2134000  -7.7310190    46.6369200    
9500000000    -8.8026290    47.8544000    13.1909500    -67.0434200   -19.8125900   -115.4751000  -7.7645290    45.5757300    
9525000000    -8.8181140    46.6991700    13.1553800    -68.5098000   -19.8209200   -116.7740000  -7.7958590    44.3383500    
9550000000    -8.8298870    45.5201200    13.1519600    -70.2610200   -19.8281700   -118.0548000  -7.7918860    43.7346900    
9575000000    -8.8429190    44.2961000    13.0830600    -71.7785500   -19.8357000   -119.3617000  -7.7622800    42.3978400    
9600000000    -8.8453080    43.0067300    13.0784800    -73.3358500   -19.8408600   -120.6665000  -7.7860640    41.3280800    
9625000000    -8.8442990    41.7207000    13.0594300    -74.9063100   -19.8493100   -121.9576000  -7.7989960    40.2928600    
9650000000    -8.8310590    40.3614600    13.0069000    -76.5217000   -19.8530000   -123.2678000  -7.7926610    39.0352900    
9675000000    -8.8191910    39.0441600    12.9812700    -78.1021800   -19.8603100   -124.5732000  -7.7907920    37.7574200    
9700000000    -8.7966670    37.7887500    12.9725000    -79.7627000   -19.8685400   -125.9130000  -7.8165070    36.7846000    
9725000000    -8.7618320    36.4705900    12.9230900    -81.2486900   -19.8731200   -127.2223000  -7.7849860    35.6568700    
9750000000    -8.7340910    35.1866100    12.8830000    -82.8124600   -19.8798200   -128.5429000  -7.7968370    34.3550900    
9775000000    -8.7047080    34.0017600    12.8759100    -84.6569200   -19.8919600   -129.8562000  -7.7995670    33.0358500    
9800000000    -8.6667070    32.7578700    12.7949000    -86.1314200   -19.8960800   -131.1766000  -7.7728970    31.7838700    
9825000000    -8.6410000    31.5813900    12.7857500    -87.5277700   -19.9058200   -132.5138000  -7.8258130    30.5988800    
9850000000    -8.6121810    30.4700400    12.7908500    -89.3088000   -19.9169900   -133.8535000  -7.8378740    29.6515100    
9875000000    -8.5821090    29.3030700    12.7011500    -90.7522400   -19.9264900   -135.1422000  -7.7961100    28.0334100    
9900000000    -8.5609950    28.2230700    12.7088600    -92.2593800   -19.9397000   -136.4531000  -7.8362110    26.9472500    
9925000000    -8.5332030    27.1205600    12.6828300    -93.8105400   -19.9497800   -137.7474000  -7.8530300    25.7731500    
9950000000    -8.5075440    25.7783400    12.6513500    -95.4393600   -19.9579300   -139.2195000  -7.8399390    24.8016000    
9975000000    -8.4876180    24.2880800    12.6138800    -97.0251800   -19.9738200   -140.9083000  -7.8365860    23.6073400    
10000000000   -8.4538000    22.5417100    12.5596400    -98.5793300   -19.9876000   -142.7578000  -7.8011360    22.3817700    
10050000000   -8.4121480    20.5638300    12.4879400    -101.8499000  -20.0033100   -144.7792000  -7.7436360    20.3744800    
10100000000   -8.3633010    18.4303600    12.4501200    -104.8087000  -20.0202400   -146.9909000  -7.7658640    18.2948100    
10150000000   -8.3111890    16.1484300    12.3769600    -108.0404000  -20.0392200   -149.4226000  -7.7016920    16.4122700    
10200000000   -8.2531800    13.8015000    12.2979400    -111.2754000  -20.0615000   -152.0137000  -7.6656720    14.4548000    
10250000000   -8.1882200    11.4996300    12.2351600    -114.4251000  -20.0845500   -154.5848000  -7.6597580    12.4517300    
10300000000   -8.1168000    9.3001010     12.1981500    -117.3062000  -20.1077000   -157.1047000  -7.7109210    10.5741300    
10350000000   -8.0430960    7.1601090     12.1106500    -120.4362000  -20.1301500   -159.6715000  -7.7264390    8.7387680     
10400000000   -7.9773580    5.1186000     12.0250300    -123.7719000  -20.1513300   -162.2064000  -7.7157130    6.8904070     
10450000000   -7.9223710    3.0681000     11.9583900    -126.9005000  -20.1752000   -164.7629000  -7.7430720    4.7507700     
10500000000   -7.8547190    1.0159930     11.8760300    -129.9848000  -20.1985500   -167.2895000  -7.7637570    2.6096340     
10550000000   -7.7887650    -1.0546980    11.8037000    -133.0216000  -20.2232000   -169.8204000  -7.8028090    0.5321994     
10600000000   -7.7294210    -3.1667020    11.7516800    -136.1472000  -20.2471200   -172.3851000  -7.8427100    -1.6583610    
10650000000   -7.6682500    -5.3228050    11.6686700    -139.3054000  -20.2684400   -174.9673000  -7.8025910    -3.7969310    
10700000000   -7.6145820    -7.4216530    11.5828900    -142.4722000  -20.2920800   -177.5123000  -7.7647170    -5.7419210    
10750000000   -7.5646000    -9.5298420    11.4977500    -145.5124000  -20.3160500   179.9207000   -7.7751580    -8.0457120    
10800000000   -7.5146620    -11.6088400   11.4182200    -148.5638000  -20.3388200   177.3869000   -7.7214260    -10.1960000   
10850000000   -7.4758360    -13.6502500   11.3576800    -151.5833000  -20.3625900   174.8578000   -7.7162600    -11.8464700   
10900000000   -7.4453850    -15.7156800   11.2805900    -154.5972000  -20.3822700   172.3271000   -7.7410200    -13.6943100   
10950000000   -7.4149140    -17.8040100   11.1952800    -157.7490000  -20.4038400   169.7861000   -7.6992500    -15.6523800   
11000000000   -7.3846510    -19.9535200   11.1292000    -160.8291000  -20.4247500   167.2367000   -7.6908510    -17.3980800   
11050000000   -7.3449460    -22.1421400   11.0559600    -163.7385000  -20.4437300   164.6673000   -7.6949840    -19.3521700   
11100000000   -7.3000440    -24.3662600   10.9826000    -167.0236000  -20.4648800   162.1071000   -7.6910630    -21.5550400   
11150000000   -7.2619180    -26.6309300   10.9219200    -170.0626000  -20.4851700   159.5154000   -7.6624870    -23.8391400   
11200000000   -7.2162730    -28.9595700   10.8666600    -173.2833000  -20.5114700   156.9045000   -7.6340420    -25.8759100   
11250000000   -7.1749520    -31.2940600   10.7592300    -176.3611000  -20.5388900   154.2669000   -7.5821440    -28.2871800   
11300000000   -7.1395810    -33.6584600   10.6901100    -179.4279000  -20.5664500   151.6640000   -7.5532810    -30.4293300   
11350000000   -7.1034470    -36.0292400   10.5798400    177.2112000   -20.6011000   149.0833000   -7.4609010    -32.3424600   
11400000000   -7.0664380    -38.4042900   10.5289800    174.2195000   -20.6358700   146.5169000   -7.4209600    -34.3275000   
11450000000   -7.0239710    -40.6568600   10.4226700    171.1253000   -20.6720100   143.9468000   -7.3264150    -36.1907700   
11500000000   -6.9785060    -42.8618800   10.3218400    168.0632000   -20.7075800   141.4101000   -7.3027630    -37.9291700   
11550000000   -6.9375280    -45.0873900   10.2518900    165.0638000   -20.7361400   138.8792000   -7.3136300    -39.6795800   
11600000000   -6.8802120    -47.3587600   10.1621100    161.9426000   -20.7672000   136.3595000   -7.2561420    -41.3803800   
11650000000   -6.8129670    -49.5633200   10.0875300    158.9349000   -20.7983900   133.8216000   -7.2528600    -43.2401300   
11700000000   -6.7489560    -51.7120400   10.0130500    155.7749000   -20.8253800   131.2853000   -7.2408250    -45.3209100   
11750000000   -6.6894110    -53.8186600   9.9183880     152.7270000   -20.8575800   128.7619000   -7.1807800    -47.9351500   
11800000000   -6.6487700    -55.9694700   9.8344590     149.6945000   -20.8870700   126.2138000   -7.1440060    -49.9991500   
11850000000   -6.6073070    -58.2147400   9.7498700     146.6830000   -20.9183500   123.6855000   -7.1303540    -52.2836500   
11900000000   -6.5626700    -60.4767800   9.6459550     143.6095000   -20.9556900   121.1721000   -7.0174040    -54.4211000   
11950000000   -6.5166550    -62.6228400   9.5751350     140.4670000   -20.9938300   118.6515000   -6.9332490    -56.1629500   
12000000000   -6.4748600    -64.6456000   9.4605160     137.5369000   -21.0275700   116.1858000   -6.8488970    -58.1118500   
12050000000   -6.4496180    -66.6504400   9.3525150     134.4795000   -21.0575600   113.7322000   -6.7843720    -60.0061600   
12100000000   -6.4354730    -68.8160700   9.2695360     131.4440000   -21.0775500   111.2102000   -6.7322140    -61.7447400   
12150000000   -6.4061890    -71.1867300   9.1984810     128.5972000   -21.1000700   108.6894000   -6.7118040    -63.4822000   
12200000000   -6.3684820    -73.6133000   9.1495380     125.6340000   -21.1204200   106.1366000   -6.6776580    -65.3946400   
12250000000   -6.3276830    -76.0229000   9.0926940     122.3247000   -21.1411300   103.5705000   -6.6107470    -68.0467500   
12300000000   -6.2997440    -78.5161800   9.0026320     119.1242000   -21.1617900   101.0098000   -6.5649530    -70.6431700   
12350000000   -6.2770460    -81.1719200   8.9131040     116.0136000   -21.1883000   98.4150400    -6.5454400    -73.1655700   
12400000000   -6.2389180    -83.9330200   8.7901190     112.8646000   -21.2235800   95.8216800    -6.4696060    -75.9467700   
12450000000   -6.1847690    -86.6046100   8.7050460     109.7796000   -21.2702400   93.3077800    -6.3783860    -78.3068500   
12500000000   -6.1309390    -89.0951300   8.5862330     106.8568000   -21.3149600   90.8234800    -6.2586960    -80.4569800   
12550000000   -6.0832030    -91.4348900   8.4747000     103.9586000   -21.3612800   88.3979100    -6.1774550    -82.5256800   
12600000000   -6.0499580    -93.7538500   8.3518650     100.9840000   -21.3987700   85.9860400    -6.0960470    -84.2646900   
12650000000   -6.0152960    -96.1755100   8.2496200     98.0896000    -21.4349500   83.5760900    -6.0458240    -85.9588000   
12700000000   -5.9688640    -98.6820600   8.1638060     95.3560200    -21.4688100   81.1171800    -6.0240720    -87.8070100   
12750000000   -5.9137110    -101.1951000  8.0775300     92.2999500    -21.5022100   78.6390300    -6.0084790    -89.7934100   
12800000000   -5.8572090    -103.7271000  8.0132620     89.2619200    -21.5337600   76.1422700    -5.9931260    -92.4042400   
12850000000   -5.8046240    -106.3349000  7.9061770     86.0834700    -21.5683600   73.6228500    -5.9490800    -94.9460100   
12900000000   -5.7483220    -109.0121000  7.7861130     83.0489400    -21.6062900   71.0606200    -5.9136830    -97.8159100   
12950000000   -5.6779510    -111.7232000  7.6721630     79.8789200    -21.6565600   68.5278400    -5.8458370    -100.7015000  
13000000000   -5.5983180    -114.2567000  7.5556380     76.8018100    -21.7133300   66.0276900    -5.7382970    -103.1793000  
13050000000   -5.5210630    -116.6004000  7.4235860     73.7473000    -21.7715000   63.6148900    -5.6298200    -105.3232000  
13100000000   -5.4532500    -118.7863000  7.2686390     71.1269000    -21.8225500   61.2474600    -5.5739560    -107.1355000  
13150000000   -5.3918220    -120.9245000  7.1373140     68.2624900    -21.8708400   58.9386400    -5.4894310    -108.8829000  
13200000000   -5.3295350    -122.9810000  7.0346440     65.6678500    -21.9135500   56.6703500    -5.4470870    -110.4536000  
13250000000   -5.2742200    -124.9431000  6.9395070     62.9632300    -21.9467300   54.3995600    -5.4503690    -112.1223000  
13300000000   -5.2365600    -126.8886000  6.8542210     60.2755400    -21.9712800   52.0903400    -5.4492520    -114.3822000  
13350000000   -5.2160660    -128.9865000  6.7723000     57.3648300    -21.9902500   49.7250500    -5.4487310    -116.8752000  
13400000000   -5.2036750    -131.2610000  6.6942270     54.4474300    -22.0084200   47.2929200    -5.4273070    -119.5618000  
13450000000   -5.1901560    -133.6649000  6.5989940     51.5609200    -22.0336400   44.8111200    -5.3660070    -122.7903000  
13500000000   -5.1784120    -136.1364000  6.4995300     48.3824700    -22.0646700   42.3063500    -5.2628790    -125.8997000  
13550000000   -5.1657060    -138.6512000  6.3940830     45.3036300    -22.1014100   39.7892800    -5.1572040    -128.7050000  
13600000000   -5.1453750    -141.1928000  6.2543980     42.3789300    -22.1430500   37.3372400    -5.0587070    -131.2775000  
13650000000   -5.1177160    -143.6750000  6.1284090     39.5440800    -22.1848400   34.9721900    -4.9509780    -133.4824000  
13700000000   -5.0819560    -146.0357000  5.9983460     36.7930100    -22.2241400   32.6634500    -4.8771910    -135.1807000  
13750000000   -5.0443430    -148.2984000  5.8934400     34.2296200    -22.2556800   30.4001000    -4.8496270    -136.7829000  
13800000000   -5.0135050    -150.5016000  5.8036250     31.7332500    -22.2777900   28.1672500    -4.8383460    -138.6916000  
13850000000   -4.9934960    -152.7500000  5.7157320     29.2017200    -22.2917700   25.9215900    -4.8233380    -140.6923000  
13900000000   -4.9828670    -155.1627000  5.6534480     26.5346700    -22.2980400   23.6195900    -4.8320980    -143.0919000  
13950000000   -4.9733880    -157.8027000  5.5985200     23.7543500    -22.3053400   21.2345900    -4.8253010    -145.8584000  
14000000000   -4.9582590    -160.5824000  5.5263890     20.7283900    -22.3186800   18.7742900    -4.8007260    -148.8355000  
14050000000   -4.9425830    -163.4834000  5.4354790     17.5994700    -22.3401400   16.2911700    -4.7535930    -151.8995000  
14100000000   -4.9182390    -166.4685000  5.3398960     14.4922200    -22.3740100   13.7966700    -4.6889380    -155.0099000  
14150000000   -4.8799290    -169.4306000  5.1907900     11.5296700    -22.4141000   11.3585200    -4.6070090    -157.6896000  
14200000000   -4.8291080    -172.2299000  5.0494620     8.6054530     -22.4599000   8.9679590     -4.5257720    -160.1036000  
14250000000   -4.7787620    -174.8512000  4.9217340     5.9124680     -22.5081400   6.6733880     -4.4632490    -162.2904000  
14300000000   -4.7305820    -177.3294000  4.7849180     3.4188340     -22.5515600   4.4614850     -4.3880260    -164.0983000  
14350000000   -4.6796100    -179.7171000  4.6695690     1.0139780     -22.5860700   2.2659620     -4.3536870    -165.9391000  
14400000000   -4.6359380    177.9488000   4.5641540     -1.5680440    -22.6177200   0.0996517     -4.3382020    -167.8094000  
14450000000   -4.6014400    175.5949000   4.4866950     -4.1754090    -22.6415000   -2.0850340    -4.3194320    -169.8932000  
14500000000   -4.5668130    173.1582000   4.3879670     -6.6553590    -22.6613900   -4.3516600    -4.3114360    -172.1522000  
14550000000   -4.5300770    170.6494000   4.2899050     -9.5108270    -22.6779500   -6.6497880    -4.3165700    -174.7583000  
14600000000   -4.4891720    168.1228000   4.1963710     -12.4259200   -22.6980100   -8.9746100    -4.2943240    -177.4825000  
14650000000   -4.4430200    165.6432000   4.0919010     -15.1581400   -22.7241900   -11.3341400   -4.2621760    179.9552000   
14700000000   -4.4006770    163.2603000   3.9721920     -17.8878900   -22.7554600   -13.6248000   -4.2357950    177.2950000   
14750000000   -4.3614950    161.0050000   3.8376480     -20.6221800   -22.7779600   -15.8593200   -4.1954190    174.7771000   
14800000000   -4.3307490    158.8400000   3.7355480     -23.1180300   -22.7956700   -18.0700800   -4.1444590    172.5592000   
14850000000   -4.3083250    156.7138000   3.6489250     -25.4334100   -22.8093400   -20.2271700   -4.1225330    170.3392000   
14900000000   -4.2972150    154.5961000   3.5506220     -27.8200100   -22.8215300   -22.3765500   -4.0907880    168.1820000   
14950000000   -4.2987850    152.4121000   3.4802850     -30.3695500   -22.8284100   -24.5726900   -4.0472180    166.0886000   
15000000000   -4.3113730    150.0575000   3.4258880     -32.8344300   -22.8359700   -26.8001400   -4.0406730    163.8299000   
15050000000   -4.3167300    147.5630000   3.3298680     -35.4620300   -22.8317800   -29.0914200   -4.0529590    161.3485000   
15100000000   -4.3100910    144.9910000   3.2299910     -38.3851500   -22.8385900   -31.4915400   -4.0404710    158.6555000   
15150000000   -4.2980040    142.3951000   3.1470170     -41.4792900   -22.8507100   -33.9070200   -4.0729950    155.7593000   
15200000000   -4.2791760    139.8355000   3.0376880     -44.1448500   -22.8648800   -36.3273500   -4.0553570    152.9318000   
15250000000   -4.2507870    137.4122000   2.9252620     -46.8398100   -22.8746500   -38.6965300   -4.0323330    149.9858000   
15300000000   -4.2301140    135.1276000   2.8150210     -49.6217500   -22.8852700   -40.9675300   -4.0113880    147.3031000   
15350000000   -4.2193350    132.9301000   2.7506160     -52.2012300   -22.8801800   -43.2259500   -3.9604620    144.5307000   
15400000000   -4.2211740    130.6703000   2.6738530     -54.4497600   -22.8807100   -45.4937300   -3.8980460    142.0812000   
15450000000   -4.2342940    128.3302000   2.5748340     -56.9388000   -22.8690800   -47.6823500   -3.8631230    140.0115000   
15500000000   -4.2544370    125.8096000   2.5182280     -59.4260700   -22.8551800   -49.8802800   -3.8273210    137.7972000   
15550000000   -4.2675080    123.0505000   2.4980470     -61.9663400   -22.8401300   -52.0982200   -3.7868700    135.5955000   
15600000000   -4.2624470    120.1239000   2.4091320     -64.4154400   -22.8290500   -54.3747900   -3.7715410    133.6960000   
15650000000   -4.2337800    117.1890000   2.3223260     -67.1769100   -22.8234600   -56.7111500   -3.7909960    131.4933000   
15700000000   -4.1902340    114.3895000   2.2376780     -69.9647500   -22.8274000   -58.9946100   -3.8011170    129.2402000   
15750000000   -4.1378570    111.7931000   2.1525550     -72.4477200   -22.8245100   -61.2525400   -3.8020140    126.9520000   
15800000000   -4.0853560    109.4000000   2.0443000     -74.8951100   -22.8206500   -63.4582600   -3.8351330    124.5136000   
15850000000   -4.0440510    107.2233000   1.9480420     -77.3762900   -22.8025400   -65.6845700   -3.8362370    121.9215000   
15900000000   -4.0279650    105.1085000   1.9113150     -79.7479600   -22.7894300   -67.9816300   -3.8059760    119.3233000   
15950000000   -4.0317210    102.9152000   1.8690590     -81.9942200   -22.7680200   -70.3085300   -3.8177730    116.7821000   
16000000000   -4.0463530    100.5770000   1.8267520     -84.5839300   -22.7361100   -72.6831400   -3.7853650    113.8692000   
16050000000   -4.0726800    98.0025200    1.7757050     -87.5258300   -22.7078900   -75.0855600   -3.7556990    110.9138000   
16100000000   -4.0952910    95.1065900    1.7330500     -90.2850400   -22.6895700   -77.5774500   -3.7319970    108.1955000   
16150000000   -4.0990380    92.0085500    1.6654760     -93.1305700   -22.6875600   -80.2217300   -3.6909120    105.2344000   
16200000000   -4.0761570    88.9345300    1.5355970     -96.0345800   -22.7081800   -82.8158000   -3.6801030    102.8232000   
16250000000   -4.0372780    86.1093100    1.4475780     -98.8423100   -22.7307700   -85.2863400   -3.6532010    100.6032000   
16300000000   -3.9974630    83.5584600    1.2999680     -101.5717000  -22.7481100   -87.6858500   -3.6530900    97.6590700    
16350000000   -3.9647580    81.2369200    1.1604200     -104.0403000  -22.7723900   -89.9500700   -3.6426720    95.3229400    
16400000000   -3.9427740    79.0724800    1.0396360     -106.4162000  -22.7866500   -92.2834400   -3.6420320    93.1656600    
16450000000   -3.9387140    77.0183700    0.9941630     -108.6385000  -22.7947700   -94.4923600   -3.6426610    90.8768300    
16500000000   -3.9420680    74.9744000    0.9502445     -110.7289000  -22.7767900   -96.6722700   -3.6243460    88.6847800    
16550000000   -3.9592660    72.8509400    0.8994098     -113.2594000  -22.7541600   -98.9074200   -3.6161040    86.2839700    
16600000000   -3.9947350    70.5110900    0.8721765     -115.9046000  -22.7226000   -101.2094000  -3.6280600    83.8212700    
16650000000   -4.0255640    67.8482900    0.8419673     -118.4759000  -22.7036200   -103.5723000  -3.6050620    81.2766200    
16700000000   -4.0305760    64.9448800    0.7990488     -121.0835000  -22.6807700   -106.0716000  -3.5883220    78.6941500    
16750000000   -4.0080780    62.0697600    0.7274014     -123.7402000  -22.6736500   -108.4698000  -3.5827570    76.2508100    
16800000000   -3.9693340    59.3916600    0.6625920     -126.3458000  -22.6609100   -110.8942000  -3.5584070    73.8482500    
16850000000   -3.9374500    56.9027900    0.5684146     -129.0109000  -22.6557800   -113.2373000  -3.5423510    71.5309600    
16900000000   -3.9154600    54.4825000    0.4638017     -131.4998000  -22.6372800   -115.4891000  -3.5542240    69.4592900    
16950000000   -3.8889890    52.0491900    0.4133021     -133.8445000  -22.6223500   -117.7601000  -3.5631080    67.2359600    
17000000000   -3.8597710    49.6934400    0.3957158     -136.0232000  -22.5996600   -120.1189000  -3.5630770    65.0690500    
17050000000   -3.8414630    47.4818600    0.3523747     -138.4271000  -22.5755400   -122.4162000  -3.5744380    62.7410800    
17100000000   -3.8448310    45.2571700    0.3048605     -141.2001000  -22.5293300   -124.7712000  -3.6125110    60.1125900    
17150000000   -3.8670400    42.7814800    0.2644832     -144.0012000  -22.4999300   -127.1759000  -3.6355200    57.4732600    
17200000000   -3.8789730    40.0766700    0.2346229     -146.5792000  -22.4789100   -129.7264000  -3.6445210    54.6207400    
17250000000   -3.8699510    37.3216300    0.1847591     -149.1433000  -22.4670900   -132.3125000  -3.6548480    51.7874800    
17300000000   -3.8503250    34.6671400    0.1236593     -152.0987000  -22.4458600   -134.9316000  -3.6565810    48.8695500    
17350000000   -3.8356320    32.1054900    0.0363210     -154.9585000  -22.4472400   -137.4699000  -3.6831950    45.9189800    
17400000000   -3.8294830    29.6022000    -0.0455283    -157.5392000  -22.4409800   -140.0083000  -3.6636790    43.3079200    
17450000000   -3.8264770    27.0796400    -0.1233316    -160.3217000  -22.4421200   -142.4682000  -3.6363890    40.7067000    
17500000000   -3.8166150    24.5826800    -0.1829190    -162.7951000  -22.4323100   -144.8921000  -3.6595230    38.2810000    
17550000000   -3.8038420    22.1602200    -0.2332617    -165.1355000  -22.4136100   -147.3396000  -3.6340440    35.8003000    
17600000000   -3.7948680    19.8802600    -0.2825716    -167.5120000  -22.3840600   -149.7902000  -3.6528430    33.5058100    
17650000000   -3.8048810    17.6406400    -0.3515409    -170.2162000  -22.3606400   -152.2235000  -3.6724180    31.0894600    
17700000000   -3.8300880    15.2362400    -0.3920120    -173.0130000  -22.3202200   -154.5569000  -3.6662310    28.1854700    
17750000000   -3.8363650    12.6475200    -0.4109378    -175.3871000  -22.2853700   -157.1190000  -3.6439450    25.5204200    
17800000000   -3.8288680    10.0948000    -0.4224767    -177.9406000  -22.2466000   -159.7849000  -3.6299190    22.8317000    
17850000000   -3.8256120    7.6215370     -0.4745421    179.1828000   -22.2030400   -162.4197000  -3.6397460    19.7776100    
17900000000   -3.8345220    5.0674080     -0.5099561    176.2884000   -22.1742400   -165.0206000  -3.5846410    16.9113000    
17950000000   -3.8389950    2.3544550     -0.5548611    173.4824000   -22.1483300   -167.7284000  -3.5279020    14.1384000    
18000000000   -3.8309540    -0.4083854    -0.5949276    170.7526000   -22.1255700   -170.4143000  -3.5375360    11.5371100    
18050000000   -3.8078960    -3.0509950    -0.6428224    167.9325000   -22.1125900   -173.2395000  -3.4935110    8.6882830     
18100000000   -3.7906870    -5.5765240    -0.7084144    165.4305000   -22.1072000   -175.6957000  -3.4485460    6.2476480     
18150000000   -3.7784500    -8.0518600    -0.7999566    162.7706000   -22.1110800   -178.1391000  -3.4747150    3.9080720     
18200000000   -3.7665260    -10.4983400   -0.8850047    160.2104000   -22.1390400   179.4242000   -3.4535870    1.3587670     
18250000000   -3.7486140    -12.8325700   -0.9491099    157.9079000   -22.1380200   176.9911000   -3.4524680    -0.8338442    
18300000000   -3.7331500    -15.0928600   -1.0320560    155.5296000   -22.1334600   174.6914000   -3.4849030    -2.9674550    
18350000000   -3.7194720    -17.2854000   -1.0940800    152.9861000   -22.1346200   172.2905000   -3.4985720    -5.6332310    
18400000000   -3.7190060    -19.4594300   -1.1526030    150.4010000   -22.1218000   169.9219000   -3.5317190    -8.1633040    
18450000000   -3.7285310    -21.7412300   -1.1877450    147.8046000   -22.1033800   167.3726000   -3.5702270    -10.6261000   
18500000000   -3.7301810    -24.1472700   -1.2127330    145.0368000   -22.0853900   164.6974000   -3.5790650    -13.5756100   
18550000000   -3.7257460    -26.6295100   -1.2615540    142.3773000   -22.0604500   162.0200000   -3.5681420    -16.3879900   
18600000000   -3.7272000    -29.1396400   -1.3047430    139.6236000   -22.0396200   159.3792000   -3.5648870    -19.3946200   
18650000000   -3.7350570    -31.6411600   -1.3628510    136.7243000   -22.0202200   156.6178000   -3.5761480    -22.5107500   
18700000000   -3.7429780    -34.1515200   -1.4408150    133.9662000   -22.0021500   154.1367000   -3.5421470    -24.9378000   
18750000000   -3.7455470    -36.6556700   -1.4920070    131.1523000   -21.9866500   151.5777000   -3.5116500    -27.5643000   
18800000000   -3.7474530    -39.1203400   -1.5566200    128.7529000   -21.9630900   148.9710000   -3.5137000    -29.9266500   
18850000000   -3.7533400    -41.5634000   -1.6101370    126.2420000   -21.9205200   146.4524000   -3.4834050    -32.4053200   
18900000000   -3.7635570    -43.9553900   -1.6303850    123.5966000   -21.8879700   143.8252000   -3.4594080    -34.8979600   
18950000000   -3.7779280    -46.3585800   -1.6383520    121.0079000   -21.8543500   141.1798000   -3.4702580    -37.1549600   
19000000000   -3.7933910    -48.8884000   -1.6538870    118.2782000   -21.8215400   138.6157000   -3.4491120    -40.0599600   
19050000000   -3.8078680    -51.5119700   -1.7242450    115.5382000   -21.7849300   135.9096000   -3.4532430    -42.5191500   
19100000000   -3.8240400    -54.2359000   -1.7355050    112.7339000   -21.7437300   133.1675000   -3.4737510    -45.3509300   
19150000000   -3.8332870    -57.0130300   -1.7481370    109.8968000   -21.7347500   130.5240000   -3.4549220    -48.7529600   
19200000000   -3.8392730    -59.7701200   -1.8190070    107.1373000   -21.7326300   127.8814000   -3.4332080    -51.6896300   
19250000000   -3.8449880    -62.5253900   -1.8977120    104.2082000   -21.6923700   125.1711000   -3.4018460    -54.4925300   
19300000000   -3.8537540    -65.3728000   -1.9572890    101.4298000   -21.6897500   122.5731000   -3.3926430    -57.3437100   
19350000000   -3.8533280    -68.3057100   -2.0290740    98.7431100    -21.6890700   119.8341000   -3.3342720    -59.8425000   
19400000000   -3.8429240    -71.2840300   -2.1237650    96.0335500    -21.6932000   116.8994000   -3.3307650    -62.0496400   
19450000000   -3.8156880    -74.2046800   -2.1654270    93.2612800    -21.6831100   114.3265000   -3.3371460    -64.1842200   
19500000000   -3.7847240    -77.0201000   -2.1929810    90.4677000    -21.6822400   111.5100000   -3.3062840    -66.6010400   
19550000000   -3.7465780    -79.7222600   -2.3031790    87.7549500    -21.6688400   108.7463000   -3.3349640    -69.2286600   
19600000000   -3.7074380    -82.2910500   -2.3832910    85.0667600    -21.7147900   105.8438000   -3.3743830    -71.7101300   
19650000000   -3.6627100    -84.6755200   -2.4788430    82.3075600    -21.7249400   102.9852000   -3.3348910    -74.6161700   
19700000000   -3.6303000    -86.9006900   -2.5234040    79.7410500    -21.7395100   100.2965000   -3.3571790    -77.7964200   
19750000000   -3.6082960    -88.9980000   -2.6339300    77.1705900    -21.7248800   97.6341200    -3.3169090    -80.4214200   
19800000000   -3.5966900    -91.1132400   -2.6708090    74.3769800    -21.7555200   94.7762500    -3.2932310    -83.4973300   
19850000000   -3.6015880    -93.3011300   -2.7154320    71.8166400    -21.7460400   92.1632200    -3.2755700    -86.1402400   
19900000000   -3.6131910    -95.2268400   -2.7781950    69.4257300    -21.7601800   89.8931100    -3.2256130    -88.7743500   
19950000000   -3.6278210    -96.8944200   -2.8661020    66.9246100    -21.7333600   88.2277300    -3.1884340    -90.9733400   
20000000000   -3.6428630    -98.3348100   -2.9280160    64.1986400    -21.7235700   86.8032800    -3.1768440    -92.9755800   
