!Mini-Circuits Laboratory
!Date: 7/15/2015 at 12:42:58 PM
!S2P DATA File Format
!Type: MMIC Amplifier
!Model: LVA-123+
!S/N: Unit 2
!Fixture: Unit soldered on TB-841+, no port extension
!PIN OUT: PORT 1 - PIN 2, PORT 2 - PIN 5, GROUND - PADDLE, NOT CONNECTED - ALL OTHER PINS
!TEST CONDITIONS: Temp= 85 (Deg C) RF Power= -25.00 (dBm) V limit=5(V) I limit=150(mA) Z=50 OHM
!PROD RUN: Q16010, DATE CODE: 1527
!WAFER/LOT#: BH175P001-02-01EV
!Network Analyzer: PNA-X N5242A S/N 71404 CAL DUE: 12/5/2015
!P.Supply/Multimeter: HP E3632A S/N 63249 CAL DUE: 12/11/2015
!
# Hz  S  dB  R  50
!Frequency    S11 dB        S11 Deg       S21 dB        S21 Deg       S12 dB        S12 Deg       S22 dB        S22 Deg       
10000000      -14.7854600   157.8655000   15.3800300    -177.7569000  -21.4983000   3.3425200     -13.7428500   -6.2411790    
20000000      -15.0474100   151.7195000   15.5869200    -176.1981000  -21.3779700   3.6971310     -14.0401400   -15.1684600   
30000000      -15.4016400   144.2230000   15.8467600    -175.3728000  -21.2248500   3.9485800     -14.4716300   -22.6747900   
40000000      -15.8556400   135.5338000   16.1195400    -175.0643000  -21.0448700   4.1017200     -14.9708800   -29.0975000   
50000000      -16.4154200   125.7044000   16.3857300    -175.3070000  -20.8425800   4.1271240     -15.4473300   -34.8700100   
60000000      -17.0022900   116.4692000   16.6118300    -175.7469000  -20.6431600   3.8337880     -16.0414200   -39.9977500   
70000000      -17.6568100   107.8306000   16.8162100    -176.5991000  -20.4636700   3.2639010     -16.7054000   -44.5874000   
80000000      -18.3742700   99.7167800    16.9856000    -177.6577000  -20.3078400   2.4874170     -17.4105200   -48.4525400   
90000000      -19.1236500   92.2222900    17.1207100    -178.8174000  -20.1764800   1.5733790     -18.1510100   -51.6138000   
100000000     -19.9060000   85.3805100    17.2257700    179.9830000   -20.0727100   0.6199045     -18.8849800   -54.1671800   
110000000     -20.7038000   79.0322000    17.3070400    178.7672000   -19.9922900   -0.3735080    -19.6108900   -55.9502900   
120000000     -21.5166000   73.1831500    17.3659800    177.5892000   -19.9320800   -1.3696340    -20.3150200   -57.1862600   
130000000     -22.3507200   67.7442500    17.4100500    176.4486000   -19.8889100   -2.3462850    -20.9900400   -58.0386700   
140000000     -23.1981900   62.7762300    17.4405900    175.3349000   -19.8593700   -3.2912150    -21.6086100   -58.3911900   
150000000     -24.0483500   58.2801600    17.4595600    174.2832000   -19.8407700   -4.2012310    -22.2036300   -58.2406500   
160000000     -24.8899900   54.1509300    17.4748700    173.2602000   -19.8306100   -5.0698980    -22.7063300   -57.7526900   
170000000     -25.7127600   50.1097700    17.4820400    172.2775000   -19.8268000   -5.8975730    -23.1612700   -57.0159400   
180000000     -26.5394500   46.4167500    17.4846600    171.3413000   -19.8268100   -6.6916530    -23.5429800   -56.0670500   
190000000     -27.3643400   42.9470900    17.4851500    170.4327000   -19.8305500   -7.4499830    -23.8634400   -55.0533900   
200000000     -28.1745900   39.7265100    17.4821500    169.5469000   -19.8368200   -8.1803460    -24.0970700   -53.9760400   
210000000     -28.9661400   36.6714400    17.4751000    168.7065000   -19.8446500   -8.8824460    -24.3340900   -53.0772100   
220000000     -29.7345800   33.6070700    17.4697500    167.8791000   -19.8537300   -9.5597710    -24.5065500   -52.0915000   
230000000     -30.5124700   30.4969100    17.4633100    167.0740000   -19.8630200   -10.2138800   -24.6012600   -51.1085100   
240000000     -31.3139100   27.6588200    17.4566300    166.2769000   -19.8727000   -10.8482500   -24.6943900   -50.2573400   
250000000     -32.0854500   24.7966300    17.4490500    165.5147000   -19.8834500   -11.4592700   -24.7305000   -49.4866400   
260000000     -32.8407700   22.0995900    17.4397600    164.7597000   -19.8940600   -12.0551400   -24.7348000   -48.9418200   
270000000     -33.5659800   19.3073800    17.4317100    164.0134000   -19.9045400   -12.6361100   -24.7407000   -48.3424300   
280000000     -34.2963200   16.5802100    17.4231600    163.2806000   -19.9147800   -13.2060800   -24.7041500   -47.9880300   
290000000     -35.0189600   13.9726400    17.4158100    162.5558000   -19.9245100   -13.7683400   -24.6667300   -47.5527000   
300000000     -35.6957600   11.5873700    17.4095000    161.8497000   -19.9344700   -14.3202400   -24.6091700   -47.2986900   
310000000     -36.3330900   9.0600050     17.4020700    161.1437000   -19.9441000   -14.8639800   -24.5811500   -47.0867700   
320000000     -36.9353400   6.4586980     17.3941200    160.4386000   -19.9535500   -15.3993800   -24.5270200   -47.0607400   
330000000     -37.5143100   3.8109160     17.3878500    159.7500000   -19.9627600   -15.9287300   -24.4721300   -47.0673400   
340000000     -38.0972500   1.2890760     17.3805900    159.0688000   -19.9716300   -16.4518500   -24.4013400   -47.1121400   
350000000     -38.6164400   -1.1909200    17.3751300    158.3942000   -19.9801200   -16.9687400   -24.3226700   -47.2071100   
360000000     -39.0928300   -3.8488740    17.3684800    157.7164000   -19.9882400   -17.4790200   -24.2657700   -47.3406200   
370000000     -39.5419600   -6.3990640    17.3624200    157.0448000   -19.9957000   -17.9867200   -24.1707900   -47.5337300   
380000000     -39.9621000   -8.7092090    17.3579300    156.3758000   -20.0027300   -18.4911300   -24.1097800   -47.7392300   
390000000     -40.4104800   -10.6055600   17.3521400    155.7171000   -20.0092300   -18.9940800   -24.0201200   -48.0645200   
400000000     -40.8173500   -12.3026900   17.3467700    155.0432000   -20.0153900   -19.4943100   -23.9578600   -48.5140100   
410000000     -41.1640800   -13.9857000   17.3414300    154.3873000   -20.0213100   -19.9927100   -23.8754500   -48.9690700   
420000000     -41.5422300   -15.6853800   17.3368600    153.7273000   -20.0270200   -20.4896400   -23.8159300   -49.3407600   
430000000     -41.9389100   -16.9822000   17.3329700    153.0717000   -20.0324800   -20.9849900   -23.7292700   -49.8481800   
440000000     -42.3348600   -17.8706300   17.3285100    152.4238000   -20.0377300   -21.4781500   -23.6738600   -50.4255000   
450000000     -42.6925700   -18.7889900   17.3234300    151.7709000   -20.0427600   -21.9704700   -23.6242300   -50.9301500   
460000000     -43.0118300   -20.0639300   17.3191300    151.1211000   -20.0476600   -22.4598900   -23.5608900   -51.4600200   
470000000     -43.3072600   -21.5422500   17.3151100    150.4724000   -20.0524000   -22.9479600   -23.5028200   -52.0304400   
480000000     -43.6609300   -22.9747000   17.3112900    149.8252000   -20.0572900   -23.4303000   -23.4665700   -52.6838800   
490000000     -43.9462700   -24.2208300   17.3083800    149.1797000   -20.0620600   -23.9105100   -23.4229700   -53.2749900   
500000000     -44.2240200   -25.1152700   17.3047400    148.5411000   -20.0668100   -24.3892400   -23.3762100   -53.8357000   
510000000     -44.4879400   -26.6755100   17.3034100    147.8707000   -20.0713300   -24.8663300   -23.3535700   -54.5096600   
520000000     -44.7825500   -27.6170600   17.3014200    147.2292000   -20.0757300   -25.3439100   -23.3111000   -55.1843000   
530000000     -45.0482700   -27.9732200   17.2983400    146.5845000   -20.0800100   -25.8211700   -23.2537000   -55.9057200   
540000000     -45.3276300   -27.8919000   17.2947800    145.9453000   -20.0841500   -26.2977400   -23.2254500   -56.6223400   
550000000     -45.5111700   -27.5755800   17.2908200    145.3055000   -20.0874600   -26.7775400   -23.1830200   -57.2405000   
560000000     -45.6914700   -26.6435600   17.2874100    144.6702000   -20.0905600   -27.2586500   -23.1365300   -58.0421100   
570000000     -45.8470800   -26.0853400   17.2848200    144.0322000   -20.0934700   -27.7393500   -23.0923400   -58.7563600   
580000000     -46.0209300   -24.8605900   17.2820000    143.3929000   -20.0963300   -28.2204400   -23.0515100   -59.4400800   
590000000     -46.2126000   -23.6692000   17.2803400    142.7512000   -20.0990100   -28.7005100   -23.0241000   -60.2429600   
600000000     -46.4570900   -22.4683600   17.2770800    142.1127000   -20.1015600   -29.1805600   -22.9741300   -61.0491400   
610000000     -46.7179100   -21.3850100   17.2758600    141.4749000   -20.1038500   -29.6617600   -22.9447900   -61.8281700   
620000000     -47.0327900   -19.9098100   17.2726200    140.8387000   -20.1062400   -30.1419000   -22.9213400   -62.6814800   
630000000     -47.3507700   -19.0525000   17.2700600    140.2050000   -20.1085400   -30.6207900   -22.8911100   -63.4774200   
640000000     -47.6741700   -17.5673600   17.2669800    139.5604000   -20.1106800   -31.0990000   -22.8765800   -64.2845700   
650000000     -47.8567800   -16.5373500   17.2643200    138.9269000   -20.1127700   -31.5769300   -22.8500500   -65.0204500   
660000000     -48.0193300   -16.1127400   17.2628700    138.2962000   -20.1149300   -32.0540800   -22.8177400   -65.8409800   
670000000     -48.0970500   -15.6087400   17.2608900    137.6635000   -20.1170600   -32.5305400   -22.7950700   -66.6297300   
680000000     -48.0986800   -14.9063700   17.2590300    137.0331000   -20.1190700   -33.0051100   -22.7452600   -67.4172600   
690000000     -47.9864500   -14.3244500   17.2572700    136.3976000   -20.1211100   -33.4810900   -22.7120000   -68.2282200   
700000000     -47.8229800   -13.8137200   17.2536300    135.7666000   -20.1230200   -33.9573100   -22.6766300   -69.0256800   
710000000     -47.6075900   -14.0871500   17.2520700    135.1302000   -20.1250500   -34.4337200   -22.6391200   -69.8333300   
720000000     -47.4596400   -13.7877300   17.2504600    134.5017000   -20.1269900   -34.9103600   -22.5944100   -70.6246600   
730000000     -47.2005000   -13.0427300   17.2487200    133.8678000   -20.1287400   -35.3863500   -22.5453400   -71.4454200   
740000000     -46.8857200   -12.2384800   17.2466300    133.2324000   -20.1305600   -35.8641100   -22.4997200   -72.2726800   
750000000     -46.5448600   -11.9289400   17.2451100    132.6020000   -20.1322000   -36.3415200   -22.4506700   -73.1426200   
760000000     -46.3178600   -11.8759800   17.2419700    131.9679000   -20.1337700   -36.8181100   -22.4024800   -73.8949800   
770000000     -46.0977900   -11.3487000   17.2412000    131.3334000   -20.1353100   -37.2942200   -22.3606700   -74.7007700   
780000000     -45.8224600   -10.2837900   17.2388400    130.6930000   -20.1366400   -37.7705200   -22.3044600   -75.5363900   
790000000     -45.5302400   -10.0823600   17.2369600    130.0572000   -20.1380200   -38.2464000   -22.2732500   -76.2882700   
800000000     -45.2671100   -10.1957200   17.2366700    129.4222000   -20.1394500   -38.7227200   -22.2272200   -77.0971400   
810000000     -45.0525600   -10.7023000   17.2350300    128.7922000   -20.1407700   -39.1981000   -22.1835100   -77.8221600   
820000000     -44.8302500   -11.1789300   17.2323500    128.1631000   -20.1422300   -39.6725200   -22.1356900   -78.6466000   
830000000     -44.4885300   -11.6719000   17.2313100    127.5371000   -20.1435600   -40.1470400   -22.0966700   -79.3396600   
840000000     -44.0984100   -12.7991000   17.2291300    126.9091000   -20.1448700   -40.6218800   -22.0472500   -80.0057100   
850000000     -43.7511900   -14.4292900   17.2278000    126.2762000   -20.1461600   -41.0961000   -21.9976700   -80.7646600   
860000000     -43.3862400   -15.5085200   17.2265600    125.6447000   -20.1474200   -41.5701800   -21.9438000   -81.4320500   
870000000     -43.0065700   -16.6387600   17.2251300    125.0175000   -20.1486100   -42.0435100   -21.8878200   -82.0915500   
880000000     -42.5870200   -17.7019200   17.2230100    124.3929000   -20.1497600   -42.5167400   -21.8204700   -82.7453800   
890000000     -42.1555000   -18.7618400   17.2214900    123.7617000   -20.1510500   -42.9917100   -21.7791500   -83.4645200   
900000000     -41.7486000   -19.6550500   17.2196100    123.1337000   -20.1523300   -43.4669000   -21.7216200   -84.1515200   
910000000     -41.3735100   -20.5183400   17.2169800    122.4991000   -20.1535900   -43.9423400   -21.6642300   -84.8973600   
920000000     -40.9827500   -21.0368600   17.2165700    121.8701000   -20.1547500   -44.4173000   -21.6145400   -85.6550300   
930000000     -40.6208600   -21.7864200   17.2152100    121.2329000   -20.1558700   -44.8932200   -21.5610000   -86.3040000   
940000000     -40.2717100   -22.3698700   17.2141700    120.6065000   -20.1569800   -45.3702900   -21.5096500   -87.0988700   
950000000     -39.9723900   -23.1326500   17.2121400    119.9722000   -20.1579500   -45.8462200   -21.4619800   -87.8108300   
960000000     -39.7251300   -23.7487700   17.2112400    119.3426000   -20.1587300   -46.3221700   -21.4187200   -88.5534100   
970000000     -39.4918300   -24.5497400   17.2096700    118.7136000   -20.1596500   -46.7983900   -21.3739200   -89.3140700   
980000000     -39.1700000   -25.4117500   17.2078500    118.0769000   -20.1607000   -47.3763200   -21.3316600   -90.0242100   
990000000     -38.8924100   -26.7492800   17.2064100    117.4476000   -20.1622600   -48.0541600   -21.2954000   -90.7887500   
1000000000    -38.5233500   -28.1544000   17.2049600    116.8209000   -20.1637400   -48.8301800   -21.2599400   -91.5529600   
1025000000    -38.1128100   -29.8291100   17.2021700    115.2562000   -20.1655400   -49.7079300   -21.1709200   -93.2263300   
1050000000    -37.6752800   -31.5537700   17.1978600    113.6995000   -20.1674700   -50.6885500   -21.0825200   -94.8539400   
1075000000    -37.1732600   -33.2647200   17.1941000    112.1252000   -20.1695400   -51.7699800   -20.9532800   -96.6355400   
1100000000    -36.6612400   -35.3044100   17.1918300    110.5632000   -20.1713000   -52.9510800   -20.8345000   -98.4012200   
1125000000    -36.2065400   -37.0798500   17.1893600    108.9832000   -20.1730200   -54.1294800   -20.7506200   -100.0771000  
1150000000    -35.6439800   -38.7149200   17.1857600    107.4110000   -20.1746400   -55.3129700   -20.6393100   -102.0035000  
1175000000    -35.1414800   -40.1980500   17.1841700    105.8374000   -20.1761100   -56.4973600   -20.5118300   -103.7387000  
1200000000    -34.6583900   -41.5750100   17.1803900    104.2710000   -20.1778100   -57.6807600   -20.4200200   -105.3456000  
1225000000    -34.1362700   -43.0074200   17.1770200    102.6947000   -20.1792700   -58.8625800   -20.2886200   -107.0349000  
1250000000    -33.6610700   -44.6449900   17.1739700    101.1203000   -20.1805300   -60.0447200   -20.1769000   -108.7480000  
1275000000    -33.1738500   -46.1216000   17.1728600    99.5494900    -20.1818300   -61.2296900   -20.0492700   -110.5183000  
1300000000    -32.7172000   -47.6179500   17.1680500    97.9768100    -20.1833800   -62.4133100   -19.9150300   -112.2736000  
1325000000    -32.3275800   -49.2031100   17.1637800    96.4036300    -20.1846700   -63.5947200   -19.8058200   -114.1210000  
1350000000    -31.9387500   -50.9312000   17.1612600    94.8535400    -20.1863800   -64.7803000   -19.7083200   -115.6524000  
1375000000    -31.5690700   -52.7540100   17.1602900    93.2339900    -20.1876400   -65.9683500   -19.6097800   -117.2237000  
1400000000    -31.2278400   -54.6427300   17.1571300    91.6833400    -20.1893400   -67.1528300   -19.5107700   -118.7580000  
1425000000    -30.8916800   -56.4638400   17.1530200    90.1289500    -20.1909000   -68.3362800   -19.3813900   -120.2299000  
1450000000    -30.5985100   -58.4815200   17.1502100    88.5786400    -20.1924600   -69.5161300   -19.2825800   -121.9491000  
1475000000    -30.2981600   -60.7173600   17.1462200    86.9708000    -20.1934200   -70.7009400   -19.2021700   -123.4213000  
1500000000    -29.9932700   -63.1188400   17.1446800    85.4071400    -20.1943000   -71.8825100   -19.1157400   -124.8899000  
1525000000    -29.7119800   -65.5950900   17.1423200    83.8345500    -20.1948600   -73.0606900   -19.0626200   -126.2291000  
1550000000    -29.4049600   -68.0424300   17.1394400    82.2664700    -20.1954600   -74.2337800   -19.0049600   -127.5664000  
1575000000    -29.1142000   -70.4296300   17.1377300    80.7097300    -20.1955600   -75.4098700   -18.9320800   -128.9289000  
1600000000    -28.8213100   -72.8564500   17.1327500    79.1479900    -20.1960700   -76.5896700   -18.8552900   -130.3003000  
1625000000    -28.5051900   -75.1503900   17.1327200    77.5659700    -20.1964500   -77.7693600   -18.7694300   -131.8014000  
1650000000    -28.2056500   -77.3239700   17.1311100    75.9990100    -20.1968800   -78.9474700   -18.7176900   -133.2359000  
1675000000    -27.8996800   -79.1658800   17.1277100    74.4315800    -20.1972200   -80.1281700   -18.6304300   -134.7098000  
1700000000    -27.6028400   -81.0197700   17.1240000    72.8480700    -20.1979600   -81.3105400   -18.5595800   -136.1891000  
1725000000    -27.3098400   -82.7059900   17.1216200    71.2893900    -20.1979200   -82.4945900   -18.4879100   -137.5351000  
1750000000    -27.0018000   -84.2377500   17.1195600    69.7053500    -20.1984200   -83.6790400   -18.3974100   -139.1421000  
1775000000    -26.7138000   -85.6959800   17.1175100    68.1351900    -20.1987000   -84.8613800   -18.3144800   -140.6767000  
1800000000    -26.4456300   -87.0762100   17.1119800    66.5585400    -20.1992800   -86.0471400   -18.2159500   -142.3561000  
1825000000    -26.1743200   -88.3576700   17.1089400    64.9643400    -20.1996900   -87.2307400   -18.1313200   -144.0574000  
1850000000    -25.9266400   -89.6870400   17.1075700    63.4031200    -20.2002500   -88.4111800   -18.0358400   -145.6094000  
1875000000    -25.6831100   -90.8744200   17.1044300    61.8318400    -20.1999700   -89.5897900   -17.9519600   -147.1596000  
1900000000    -25.4487000   -92.1611700   17.1023300    60.2487200    -20.2006400   -90.7676700   -17.8542400   -148.8183000  
1925000000    -25.2520400   -93.4331400   17.1002400    58.6916900    -20.2003200   -91.9489700   -17.7925900   -150.2100000  
1950000000    -25.0497300   -94.7926100   17.0977300    57.0972400    -20.2000200   -93.1284700   -17.7143200   -151.8953000  
1975000000    -24.8603700   -96.1208800   17.0948700    55.5329100    -20.1992900   -94.3060200   -17.6334100   -153.5607000  
2000000000    -24.6814600   -97.6236600   17.0910100    53.9670700    -20.1989400   -95.4823500   -17.5654900   -155.0811000  
2025000000    -24.5064400   -99.1329500   17.0913600    52.3853800    -20.1979500   -96.6627100   -17.5077200   -156.5752000  
2050000000    -24.3306000   -100.7162000  17.0883700    50.8157300    -20.1973300   -97.8420900   -17.4516900   -157.9234000  
2075000000    -24.1855000   -102.3537000  17.0860700    49.2572000    -20.1961300   -99.0225800   -17.3915900   -159.4028000  
2100000000    -24.0164000   -104.0688000  17.0804300    47.6805800    -20.1955600   -100.2012000  -17.3399100   -160.6837000  
2125000000    -23.8479200   -105.7222000  17.0816600    46.1202400    -20.1945600   -101.3758000  -17.2834000   -162.1457000  
2150000000    -23.6679700   -107.3987000  17.0769400    44.5619400    -20.1940200   -102.5525000  -17.2217000   -163.6314000  
2175000000    -23.4870300   -109.0419000  17.0762700    42.9843000    -20.1931900   -103.7291000  -17.1716300   -165.0972000  
2200000000    -23.3067300   -110.6426000  17.0712200    41.4057800    -20.1929600   -104.9024000  -17.1005900   -166.4759000  
2225000000    -23.1074400   -112.1497000  17.0690500    39.8295400    -20.1925300   -106.0783000  -17.0167400   -167.8455000  
2250000000    -22.8979700   -113.5501000  17.0655700    38.2688100    -20.1921100   -107.2518000  -16.9457300   -169.3740000  
2275000000    -22.7106700   -114.8869000  17.0641200    36.7112200    -20.1912200   -108.4272000  -16.8753000   -170.7310000  
2300000000    -22.5336500   -116.2423000  17.0591600    35.1269300    -20.1903300   -109.6056000  -16.7952300   -172.3786000  
2325000000    -22.3608700   -117.5523000  17.0552600    33.5652400    -20.1892500   -110.7820000  -16.7315800   -173.9918000  
2350000000    -22.1957800   -118.7935000  17.0519100    31.9840000    -20.1881300   -111.9578000  -16.6727800   -175.4725000  
2375000000    -22.0439000   -119.9922000  17.0509500    30.4103100    -20.1864500   -113.1350000  -16.5904300   -177.0521000  
2400000000    -21.9207800   -121.1828000  17.0481500    28.8450200    -20.1848600   -114.3108000  -16.5542100   -178.5922000  
2425000000    -21.8268000   -122.4253000  17.0445000    27.2772900    -20.1826400   -115.4891000  -16.4894800   -179.8848000  
2450000000    -21.7397900   -123.8313000  17.0419200    25.7142200    -20.1805700   -116.6664000  -16.4561200   178.6187000   
2475000000    -21.6722700   -125.1444000  17.0399000    24.1365400    -20.1786600   -117.8447000  -16.4107300   177.0121000   
2500000000    -21.6112800   -126.5927000  17.0358300    22.5519800    -20.1763200   -119.0224000  -16.3854900   175.3983000   
2525000000    -21.5633500   -128.1625000  17.0388700    20.9783800    -20.1738900   -120.2026000  -16.3861400   173.6237000   
2550000000    -21.5202500   -129.8178000  17.0355400    19.4099300    -20.1710800   -121.3819000  -16.3787800   172.2256000   
2575000000    -21.4754400   -131.5475000  17.0313500    17.8190600    -20.1686600   -122.5613000  -16.3618300   170.8296000   
2600000000    -21.4207300   -133.3730000  17.0305400    16.2642600    -20.1666600   -123.7426000  -16.3605300   169.3978000   
2625000000    -21.3550100   -135.1141000  17.0274700    14.6809700    -20.1644600   -124.9239000  -16.3341200   167.8938000   
2650000000    -21.2618300   -136.9656000  17.0255000    13.0913200    -20.1620900   -126.1042000  -16.3140100   166.4526000   
2675000000    -21.1609200   -138.8004000  17.0243800    11.5219800    -20.1597300   -127.2843000  -16.2705600   164.9466000   
2700000000    -21.0599800   -140.6002000  17.0202800    9.9449330     -20.1571600   -128.4652000  -16.2323900   163.5004000   
2725000000    -20.9428800   -142.3499000  17.0180300    8.3710480     -20.1552200   -129.6459000  -16.1956300   162.0485000   
2750000000    -20.8187900   -143.9662000  17.0161800    6.7979200     -20.1532700   -130.8272000  -16.1471000   160.7232000   
2775000000    -20.6798300   -145.5152000  17.0122400    5.2162880     -20.1508300   -132.0058000  -16.0864200   159.4350000   
2800000000    -20.5583000   -147.1220000  17.0079600    3.6506460     -20.1481900   -133.1856000  -16.0240600   158.0758000   
2825000000    -20.4525800   -148.6391000  17.0022800    2.0727740     -20.1454000   -134.3694000  -15.9838600   156.7259000   
2850000000    -20.3638300   -150.0988000  17.0009700    0.4999121     -20.1430100   -135.5560000  -15.9457400   154.9754000   
2875000000    -20.2677400   -151.5470000  17.0005100    -1.1117840    -20.1399300   -136.7381000  -15.9245400   153.5409000   
2900000000    -20.1795800   -153.0416000  16.9973400    -2.6976450    -20.1362700   -137.9196000  -15.8974200   151.8250000   
2925000000    -20.1081300   -154.6131000  16.9973000    -4.2819250    -20.1322500   -139.0990000  -15.8981800   150.3406000   
2950000000    -20.0595600   -156.1454000  16.9921400    -5.8441300    -20.1283800   -140.2817000  -15.8615500   149.0153000   
2975000000    -20.0098200   -157.6633000  16.9920700    -7.4097920    -20.1243500   -141.4620000  -15.8480100   147.5059000   
3000000000    -19.9693800   -159.2887000  16.9872100    -8.9769840    -20.1204000   -142.6438000  -15.8313200   146.0342000   
3025000000    -19.9340400   -161.0065000  16.9858100    -10.5623300   -20.1153400   -143.8228000  -15.8288400   144.3354000   
3050000000    -19.9148500   -162.6877000  16.9852700    -12.1597000   -20.1109000   -145.0080000  -15.8560700   142.5393000   
3075000000    -19.9051500   -164.4702000  16.9835800    -13.7595300   -20.1067900   -146.1959000  -15.8987600   140.8396000   
3100000000    -19.8890400   -166.3156000  16.9810100    -15.3386000   -20.1021800   -147.3836000  -15.9185700   139.4054000   
3125000000    -19.8678800   -168.2304000  16.9796200    -16.9315900   -20.0978600   -148.5708000  -15.9326300   137.8160000   
3150000000    -19.8360000   -170.2024000  16.9778200    -18.5179200   -20.0933900   -149.7579000  -15.9619000   136.3632000   
3175000000    -19.7865100   -172.1440000  16.9749900    -20.0941800   -20.0885700   -150.9420000  -15.9813000   134.9563000   
3200000000    -19.7173200   -174.0224000  16.9701600    -21.6727100   -20.0842000   -152.1275000  -15.9929300   133.3247000   
3225000000    -19.6311100   -175.9252000  16.9708800    -23.2582100   -20.0798500   -153.3097000  -15.9894200   131.6844000   
3250000000    -19.5358400   -177.6560000  16.9669400    -24.8486700   -20.0759400   -154.4915000  -15.9886100   130.1228000   
3275000000    -19.4342700   -179.2468000  16.9629200    -26.4353200   -20.0720600   -155.6714000  -15.9836500   128.8106000   
3300000000    -19.3288800   179.2476000   16.9606200    -28.0089000   -20.0670900   -156.8503000  -15.9396700   127.3189000   
3325000000    -19.2243400   177.9426000   16.9559000    -29.6169500   -20.0629300   -158.0303000  -15.9335300   125.8380000   
3350000000    -19.1423500   176.7459000   16.9521200    -31.1497000   -20.0585500   -159.2104000  -15.8778300   124.2219000   
3375000000    -19.0781700   175.6114000   16.9519900    -32.7549200   -20.0538000   -160.3916000  -15.8458100   122.3436000   
3400000000    -19.0303600   174.5469000   16.9452200    -34.3535000   -20.0490400   -161.5735000  -15.8327800   120.4467000   
3425000000    -18.9996300   173.4424000   16.9432500    -35.9484700   -20.0434200   -162.7547000  -15.8117600   118.4210000   
3450000000    -18.9762300   172.3132000   16.9441700    -37.5253000   -20.0379500   -163.9380000  -15.7848000   116.6279000   
3475000000    -18.9782600   171.2094000   16.9404800    -39.0967400   -20.0325800   -165.1235000  -15.7631500   114.8006000   
3500000000    -18.9958200   169.9197000   16.9369700    -40.6970500   -20.0266300   -166.3113000  -15.7266800   113.1671000   
3525000000    -19.0194900   168.5499000   16.9357200    -42.2431700   -20.0205300   -167.5001000  -15.7128200   111.3664000   
3550000000    -19.0582000   167.0612000   16.9316700    -43.8786400   -20.0146400   -168.6921000  -15.7181800   109.3571000   
3575000000    -19.1037300   165.4338000   16.9319800    -45.4682000   -20.0079900   -169.8839000  -15.7444000   107.3689000   
3600000000    -19.1425600   163.7519000   16.9268500    -47.0842300   -20.0011800   -171.0759000  -15.8021900   105.5720000   
3625000000    -19.1862200   161.9559000   16.9267400    -48.7014900   -19.9941000   -172.2701000  -15.8641600   103.7722000   
3650000000    -19.2191100   160.0338000   16.9254800    -50.2816500   -19.9878100   -173.4686000  -15.8808600   102.0910000   
3675000000    -19.2431000   158.1074000   16.9239200    -51.8674900   -19.9812400   -174.6643000  -15.9116900   100.4341000   
3700000000    -19.2502300   156.1076000   16.9161300    -53.4474800   -19.9751800   -175.8610000  -15.9247000   98.8620200    
3725000000    -19.2430800   154.1657000   16.9178200    -55.0579100   -19.9683300   -177.0565000  -15.9708800   97.0139000    
3750000000    -19.2235300   152.3501000   16.9126800    -56.6525400   -19.9626400   -178.2500000  -16.0073100   95.2746600    
3775000000    -19.1893100   150.6089000   16.9091500    -58.2602200   -19.9574100   -179.4445000  -16.0616100   93.5688700    
3800000000    -19.1645800   148.9607000   16.9078400    -59.8651700   -19.9516200   179.3581000   -16.0453200   91.7004500    
3825000000    -19.1288900   147.4515000   16.9024800    -61.4600000   -19.9458600   178.1662000   -16.0403600   90.1201500    
3850000000    -19.1018500   146.1030000   16.8954200    -63.0436400   -19.9409200   176.9703000   -16.0074100   88.4410600    
3875000000    -19.0867200   144.8352000   16.8950200    -64.6467700   -19.9350800   175.7712000   -15.9551100   86.5423000    
3900000000    -19.0717000   143.6159000   16.8853200    -66.2407000   -19.9297700   174.5764000   -15.9310100   84.5963100    
3925000000    -19.0562200   142.4574000   16.8793200    -67.8506700   -19.9241100   173.3780000   -15.9093100   82.6834300    
3950000000    -19.0668200   141.2493000   16.8770300    -69.4749100   -19.9177000   172.1794000   -15.8899900   80.6208300    
3975000000    -19.0633400   140.1204000   16.8763200    -71.0726900   -19.9115200   170.9881000   -15.8602000   78.7669200    
4000000000    -19.0975800   138.8812000   16.8676200    -72.6548800   -19.9036900   169.7858000   -15.8570300   77.0409100    
4025000000    -19.1464400   137.5330000   16.8702300    -74.2504100   -19.8963900   168.5847000   -15.7912700   75.1267700    
4050000000    -19.2010500   136.2202000   16.8606700    -75.8046800   -19.8901400   167.3871000   -15.7553200   73.3359700    
4075000000    -19.2599900   134.7096000   16.8627200    -77.4526800   -19.8826100   166.1874000   -15.7435000   70.9960600    
4100000000    -19.3341900   133.0003000   16.8525300    -79.0699800   -19.8740600   164.9818000   -15.8160000   69.0961600    
4125000000    -19.3999700   131.2493000   16.8468800    -80.6843800   -19.8668900   163.7700000   -15.8964100   67.0880100    
4150000000    -19.4823600   129.3529000   16.8477200    -82.3071400   -19.8599900   162.5602000   -15.9158100   65.2955200    
4175000000    -19.5281200   127.3817000   16.8455400    -83.9209200   -19.8525500   161.3644000   -15.9459500   63.5506100    
4200000000    -19.5718400   125.3855000   16.8371400    -85.5390900   -19.8438100   160.1616000   -16.0187600   61.8023300    
4225000000    -19.6140400   123.2209000   16.8304900    -87.0996900   -19.8349900   158.9588000   -16.0160000   60.2307200    
4250000000    -19.6511200   121.1421000   16.8347000    -88.6773200   -19.8264000   157.7542000   -16.0194400   58.3029200    
4275000000    -19.6904700   119.1020000   16.8307600    -90.3286400   -19.8181000   156.5470000   -16.0948600   56.2017600    
4300000000    -19.7182300   117.0811000   16.8223200    -91.9407700   -19.8091600   155.3473000   -16.1855300   54.3317900    
4325000000    -19.7470500   115.0641000   16.8238000    -93.5621800   -19.7994900   154.1427000   -16.2331000   52.3286600    
4350000000    -19.7985500   113.1866000   16.8190400    -95.1911500   -19.7914800   152.9305000   -16.2895200   50.2808200    
4375000000    -19.8605400   111.3133000   16.8120400    -96.7480300   -19.7831400   151.7195000   -16.3065400   48.5986800    
4400000000    -19.9324200   109.5642000   16.8114400    -98.3521900   -19.7744100   150.5061000   -16.2664800   46.4577900    
4425000000    -20.0318800   107.9304000   16.8053400    -99.9534600   -19.7672200   149.2828000   -16.2812900   44.1146800    
4450000000    -20.1332600   106.2386000   16.8023300    -101.5977000  -19.7596300   148.0610000   -16.3229600   41.6014600    
4475000000    -20.2576100   104.6720000   16.7970000    -103.2300000  -19.7528400   146.8434000   -16.3707100   39.0760300    
4500000000    -20.3927100   103.0359000   16.7856500    -104.8930000  -19.7441900   145.6201000   -16.4458400   36.7966400    
4525000000    -20.5434600   101.3877000   16.7846700    -106.5177000  -19.7356800   144.3911000   -16.4287500   34.3698100    
4550000000    -20.6972900   99.6502500    16.7724500    -108.0879000  -19.7266600   143.1635000   -16.4525100   32.4397700    
4575000000    -20.8510800   97.8370200    16.7757100    -109.7060000  -19.7183100   141.9300000   -16.3715200   29.8333700    
4600000000    -21.0279700   95.9345800    16.7667400    -111.3698000  -19.7110300   140.6796000   -16.3752700   27.4070400    
4625000000    -21.1783700   93.9346400    16.7654200    -113.0207000  -19.7037600   139.4480000   -16.3633500   24.8402500    
4650000000    -21.3117600   91.6422900    16.7534200    -114.6547000  -19.6937200   138.2000000   -16.4636300   22.5853800    
4675000000    -21.4298900   89.3702500    16.7365000    -116.3743000  -19.6861200   136.9508000   -16.5918400   19.8736900    
4700000000    -21.5160900   87.0481000    16.7378500    -117.9537000  -19.6783800   135.7118000   -16.5837200   18.4072800    
4725000000    -21.5759000   84.7401000    16.7364300    -119.6058000  -19.6711100   134.4757000   -16.5715300   16.1659100    
4750000000    -21.6432800   82.3911100    16.7298000    -121.2140000  -19.6636500   133.2398000   -16.5942800   14.2809500    
4775000000    -21.6735200   79.9032500    16.7215300    -122.8191000  -19.6534100   132.0242000   -16.5915500   12.4800200    
4800000000    -21.7314600   77.5649800    16.7167600    -124.4362000  -19.6438300   130.7904000   -16.6011700   10.4124000    
4825000000    -21.8102900   75.3684600    16.7062700    -126.0982000  -19.6355300   129.5596000   -16.6837300   8.1512380     
4850000000    -21.9076400   73.1899300    16.7063800    -127.7467000  -19.6272400   128.3317000   -16.6767300   5.8875160     
4875000000    -22.0453300   70.9365500    16.6972900    -129.3781000  -19.6182300   127.0957000   -16.6949200   3.7874070     
4900000000    -22.2097200   68.6744500    16.6903600    -131.0096000  -19.6102400   125.8669000   -16.7077200   1.3427150     
4925000000    -22.3829200   66.2387800    16.6794600    -132.6061000  -19.5998900   124.6381000   -16.7011200   -0.9267667    
4950000000    -22.5871600   63.7696000    16.6730500    -134.2496000  -19.5909000   123.4067000   -16.6764600   -3.6397630    
4975000000    -22.8242600   61.1589000    16.6673200    -135.8269000  -19.5823000   122.1723000   -16.6747400   -5.9541770    
5000000000    -23.0827600   58.3381400    16.6661900    -137.5067000  -19.5732700   120.9349000   -16.6356200   -9.1093240    
5025000000    -23.3570200   55.2702600    16.6571100    -139.1501000  -19.5631900   119.6889000   -16.6385100   -12.0470200   
5050000000    -23.6329100   51.9516800    16.6429900    -140.7989000  -19.5546000   118.4406000   -16.6432600   -14.8581200   
5075000000    -23.9026600   48.5514100    16.6406600    -142.4352000  -19.5464600   117.1786000   -16.5857900   -17.6305500   
5100000000    -24.1454900   44.9721000    16.6314800    -144.0933000  -19.5395200   115.9209000   -16.5050600   -20.3138500   
5125000000    -24.3574400   41.3219100    16.6184700    -145.7582000  -19.5333300   114.6602000   -16.4913800   -23.0134000   
5150000000    -24.4952100   37.5739600    16.5999200    -147.3805000  -19.5260000   113.4024000   -16.4967600   -25.5654900   
5175000000    -24.6053500   33.9764900    16.5952500    -149.0375000  -19.5197300   112.1429000   -16.4446100   -27.9504900   
5200000000    -24.6668900   30.3829600    16.5832700    -150.6880000  -19.5139300   110.8852000   -16.4804800   -30.4096000   
5225000000    -24.6862300   26.9266400    16.5765000    -152.3443000  -19.5075300   109.6266000   -16.4368600   -32.3893500   
5250000000    -24.6782500   23.4830000    16.5598100    -153.9769000  -19.5003000   108.3720000   -16.4509400   -34.5776400   
5275000000    -24.6365800   20.2750500    16.5525000    -155.6400000  -19.4935500   107.1065000   -16.4209400   -36.7000600   
5300000000    -24.6018700   17.2952100    16.5415500    -157.3063000  -19.4873100   105.8490000   -16.3908600   -38.7481700   
5325000000    -24.5866000   14.5421100    16.5304700    -158.9384000  -19.4806000   104.5922000   -16.3719400   -40.7703200   
5350000000    -24.5887300   11.7462000    16.5208000    -160.6324000  -19.4725000   103.3372000   -16.3834600   -43.1123200   
5375000000    -24.6444800   9.1317510     16.5041800    -162.2439000  -19.4660600   102.0777000   -16.3975900   -45.1286400   
5400000000    -24.7183500   6.4136420     16.5003500    -163.8824000  -19.4584000   100.8308000   -16.3010700   -47.1061700   
5425000000    -24.8332500   3.4077190     16.4894900    -165.5245000  -19.4499300   99.5724200    -16.2166000   -49.2752000   
5450000000    -25.0168700   0.2474254     16.4708300    -167.1703000  -19.4420600   98.3217500    -16.1605100   -51.6927100   
5475000000    -25.2439000   -3.4636560    16.4693800    -168.7955000  -19.4338100   97.0494000    -16.0104700   -53.8538700   
5500000000    -25.5074700   -7.5486990    16.4553500    -170.4848000  -19.4272300   95.7789500    -15.8977700   -56.5979100   
5525000000    -25.7555500   -12.0539800   16.4408700    -172.1244000  -19.4221000   94.5131900    -15.8380800   -59.0851400   
5550000000    -25.9556400   -17.0837900   16.4178600    -173.8400000  -19.4156600   93.2529000    -15.7683500   -62.2690800   
5575000000    -26.0916300   -22.5652300   16.4059500    -175.4565000  -19.4103500   91.9800100    -15.6848000   -64.6907200   
5600000000    -26.1586300   -28.1715800   16.3949600    -177.0454000  -19.4054900   90.7148800    -15.5705100   -67.1461100   
5625000000    -26.1322000   -33.9545100   16.3876700    -178.6971000  -19.4009700   89.4356400    -15.4109800   -69.6145400   
5650000000    -26.0037500   -39.2499900   16.3726400    179.6231000   -19.3971700   88.1780000    -15.2925000   -72.2372700   
5675000000    -25.7875800   -44.4239400   16.3600900    177.9543000   -19.3913600   86.9114000    -15.1806600   -74.7542000   
5700000000    -25.5206800   -49.2262300   16.3375100    176.2698000   -19.3854500   85.6363400    -15.1161200   -77.4277800   
5725000000    -25.2144200   -53.6752000   16.3223100    174.6505000   -19.3797900   84.3559300    -15.0803900   -79.4456600   
5750000000    -24.9362300   -57.6318400   16.3101500    172.9481000   -19.3757500   83.0597400    -14.9676700   -81.5267300   
5775000000    -24.6480500   -60.8392200   16.2958300    171.3118000   -19.3725800   81.7786000    -14.8818800   -83.4938300   
5800000000    -24.3711800   -63.4196100   16.2774000    169.6441000   -19.3681500   80.5029800    -14.8324400   -85.4925000   
5825000000    -24.0967200   -65.9241200   16.2478000    167.9611000   -19.3622200   79.2318000    -14.8059000   -87.8065600   
5850000000    -23.8835800   -68.1170600   16.2390800    166.3908000   -19.3579800   77.9580500    -14.8076200   -89.1894600   
5875000000    -23.6841300   -70.2097700   16.2249000    164.7039000   -19.3532700   76.6871300    -14.7803000   -90.9864300   
5900000000    -23.5224900   -72.2601500   16.2143100    163.0605000   -19.3482300   75.4207500    -14.7399500   -92.7726000   
5925000000    -23.3480700   -74.3314400   16.1967700    161.4127000   -19.3418700   74.1644100    -14.7228000   -94.4938700   
5950000000    -23.1941500   -76.8192700   16.1844200    159.7633000   -19.3351800   72.8902500    -14.6584500   -96.2104900   
5975000000    -23.0374100   -79.7565600   16.1728400    158.1202000   -19.3279700   71.6055100    -14.5680700   -98.2825500   
6000000000    -22.9255200   -82.9078100   16.1531000    156.4592000   -19.3233000   70.2956200    -14.4825400   -100.4194000  
6025000000    -22.7723600   -86.1789900   16.1353900    154.7836000   -19.3176100   69.0062600    -14.3979900   -102.5696000  
6050000000    -22.6109800   -89.7901800   16.1154700    153.0275000   -19.3124800   67.7130400    -14.2970300   -105.0788000  
6075000000    -22.4161000   -93.5513200   16.0839300    151.4130000   -19.3088700   66.4131000    -14.2610800   -107.5531000  
6100000000    -22.1921000   -97.2958800   16.0861300    149.7701000   -19.3060700   65.1180800    -14.1306300   -109.1881000  
6125000000    -21.9347700   -100.9520000  16.0620200    148.1070000   -19.3041300   63.8255200    -14.0080500   -111.6436000  
6150000000    -21.6542500   -104.3099000  16.0394200    146.4737000   -19.3031500   62.5438000    -13.9005000   -113.9636000  
6175000000    -21.3344400   -107.4562000  16.0218500    144.8114000   -19.3012200   61.2711800    -13.7855300   -116.2606000  
6200000000    -21.0159300   -110.4013000  15.9982100    143.1700000   -19.3003000   59.9818500    -13.7030400   -118.3999000  
6225000000    -20.6828100   -113.0300000  15.9777900    141.4993000   -19.2976000   58.6923900    -13.6352900   -120.5968000  
6250000000    -20.3748800   -115.3963000  15.9526900    139.8551000   -19.2983200   57.4005500    -13.6253600   -122.7664000  
6275000000    -20.0764500   -117.3042000  15.9365300    138.1938000   -19.2966000   56.1300400    -13.5612100   -124.5837000  
6300000000    -19.8033900   -119.0509000  15.9180500    136.4842000   -19.2949100   54.8462300    -13.4498200   -126.5984000  
6325000000    -19.5666700   -120.6051000  15.8817900    134.9716000   -19.2925400   53.5697800    -13.4903200   -128.8030000  
6350000000    -19.3534300   -122.0476000  15.8828500    133.3152000   -19.2890700   52.2917300    -13.3879000   -130.0699000  
6375000000    -19.1691600   -123.5391000  15.8506700    131.6695000   -19.2859400   51.0100600    -13.3775100   -132.0420000  
6400000000    -19.0182800   -125.0170000  15.8382700    129.9833000   -19.2850900   49.7299100    -13.3412000   -133.6410000  
6425000000    -18.8549100   -126.4841000  15.8120500    128.3308000   -19.2794500   48.4507400    -13.3373600   -135.3011000  
6450000000    -18.7200500   -128.2410000  15.7940100    126.6956000   -19.2754900   47.1541300    -13.3185200   -136.9675000  
6475000000    -18.6059300   -130.0234000  15.7707400    125.0436000   -19.2723700   45.8670000    -13.2708700   -138.8004000  
6500000000    -18.4861000   -132.0130000  15.7515500    123.3741000   -19.2697700   44.5736700    -13.1642700   -140.7233000  
6525000000    -18.3656600   -134.1507000  15.7360800    121.7486000   -19.2671200   43.2878400    -13.0890900   -142.3143000  
6550000000    -18.2260500   -136.5002000  15.7129500    120.1309000   -19.2633600   41.9922900    -13.0367300   -144.1311000  
6575000000    -18.0670200   -138.9513000  15.6925600    118.4425000   -19.2599500   40.6955500    -12.9656100   -145.8949000  
6600000000    -17.8820100   -141.6009000  15.6779900    116.7693000   -19.2569200   39.3810800    -12.8786900   -147.6371000  
6625000000    -17.6607900   -144.1938000  15.6536200    115.0505000   -19.2555500   38.0692200    -12.7303000   -149.6918000  
6650000000    -17.4028900   -146.9422000  15.6310800    113.4014000   -19.2555200   36.7400300    -12.5886200   -151.8416000  
6675000000    -17.1514900   -149.5378000  15.5927700    111.6741000   -19.2584100   35.4090300    -12.3964700   -154.4283000  
6700000000    -16.8745600   -151.9296000  15.5733400    110.0370000   -19.2625700   34.0769100    -12.2737800   -156.5008000  
6725000000    -16.5923800   -154.1169000  15.5283300    108.3719000   -19.2670400   32.7494800    -12.2019100   -158.9588000  
6750000000    -16.3218000   -156.0966000  15.5003700    106.7710000   -19.2721800   31.4320300    -12.1642100   -160.9560000  
6775000000    -16.0681900   -157.7751000  15.4766200    105.0904000   -19.2778900   30.1394400    -12.1229600   -162.9090000  
6800000000    -15.8366300   -159.4510000  15.4551100    103.3666000   -19.2838100   28.8277800    -12.0223000   -164.7122000  
6825000000    -15.6287000   -160.8130000  15.4325100    101.7723000   -19.2872100   27.5495900    -11.9420400   -166.4485000  
6850000000    -15.4265100   -162.1255000  15.4042300    100.1163000   -19.2892900   26.2682600    -11.7979300   -168.2852000  
6875000000    -15.2509000   -163.4555000  15.3587700    98.4740700    -19.2906400   24.9879000    -11.6890900   -170.3574000  
6900000000    -15.1138100   -164.7406000  15.3458300    96.8687500    -19.2938800   23.7100700    -11.6143600   -171.5347000  
6925000000    -15.0021500   -166.0468000  15.3117400    95.2052200    -19.2967100   22.4224600    -11.5664800   -173.1608000  
6950000000    -14.9191200   -167.3197000  15.2845400    93.5643100    -19.2994000   21.1540800    -11.5588000   -174.4564000  
6975000000    -14.8608700   -168.6009000  15.2574100    91.9775800    -19.3005100   19.8952100    -11.5390400   -175.7999000  
7000000000    -14.8004300   -169.9889000  15.2273300    90.4122600    -19.3001000   18.6217300    -11.4966200   -177.1314000  
7025000000    -14.7552700   -171.4909000  15.2195200    88.8003200    -19.3015600   17.3494100    -11.3890700   -178.1138000  
7050000000    -14.7147800   -173.0160000  15.1879000    87.1937300    -19.3026600   16.0801700    -11.2796400   -179.4834000  
7075000000    -14.6624600   -174.5811000  15.1577500    85.5038500    -19.3031500   14.8171900    -11.1753000   179.1622000   
7100000000    -14.5895500   -176.2195000  15.1299600    83.9347400    -19.3016500   13.5505000    -11.1736700   177.7886000   
7125000000    -14.5067900   -177.9563000  15.1120900    82.3135200    -19.3004900   12.2583500    -11.1534500   176.6462000   
7150000000    -14.4036600   -179.7000000  15.0936200    80.6644400    -19.3000600   10.9588800    -11.1200000   175.3209000   
7175000000    -14.3030400   178.5927000   15.0613600    78.9576600    -19.3027000   9.6639920     -11.0325200   173.7278000   
7200000000    -14.1797500   176.9364000   15.0266100    77.3708000    -19.3029400   8.3624840     -10.9676600   172.0770000   
7225000000    -14.0563600   175.3564000   14.9871400    75.7367400    -19.3054800   7.0638270     -10.8870900   170.2140000   
7250000000    -13.9230800   173.7953000   14.9615300    74.1466600    -19.3057400   5.7572240     -10.8619000   168.7072000   
7275000000    -13.7977100   172.3382000   14.9229600    72.4824600    -19.3085000   4.4516590     -10.8545700   166.9297000   
7300000000    -13.6716900   170.9778000   14.9075200    70.9238700    -19.3115300   3.1525290     -10.8842400   165.5145000   
7325000000    -13.5592400   169.6475000   14.8782000    69.1672700    -19.3162000   1.8505090     -10.8272300   163.9377000   
7350000000    -13.4511500   168.3957000   14.8530700    67.5865600    -19.3208500   0.5518766     -10.7945600   162.3263000   
7375000000    -13.3533900   167.2267000   14.8281800    65.9388000    -19.3238600   -0.7201173    -10.7334600   160.7549000   
7400000000    -13.2551100   165.9800000   14.7785000    64.4231900    -19.3251300   -2.0186730    -10.7034400   158.8798000   
7425000000    -13.1798600   164.7582000   14.7533700    62.8259700    -19.3287400   -3.3070390    -10.6640800   157.4193000   
7450000000    -13.1224400   163.4841000   14.7392400    61.1057400    -19.3320500   -4.5971930    -10.6322700   156.3751000   
7475000000    -13.0659000   162.0989000   14.6986100    59.4795700    -19.3319100   -5.8929590    -10.6404400   154.8165000   
7500000000    -13.0173100   160.6104000   14.6859700    57.8531400    -19.3318200   -7.1966500    -10.6527600   153.7201000   
7525000000    -12.9782400   158.9855000   14.6536300    56.2750400    -19.3327000   -8.5020670    -10.6263000   152.3941000   
7550000000    -12.9394300   157.2773000   14.6259400    54.5077600    -19.3346300   -9.8129720    -10.4939300   151.1978000   
7575000000    -12.8929700   155.5171000   14.5775400    52.9762000    -19.3352900   -11.1115500   -10.4162100   149.4342000   
7600000000    -12.8335900   153.6496000   14.5521700    51.4388700    -19.3358600   -12.4215100   -10.3783000   148.2632000   
7625000000    -12.7586600   151.7916000   14.5351200    49.7636900    -19.3370400   -13.7215700   -10.3117300   147.2326000   
7650000000    -12.6780400   149.9242000   14.5053900    48.0764800    -19.3415200   -15.0220200   -10.2605400   145.8860000   
7675000000    -12.5808000   148.1864000   14.4681100    46.4422500    -19.3455400   -16.3025600   -10.2343400   144.5105000   
7700000000    -12.4606600   146.4817000   14.4505100    44.8605700    -19.3466900   -17.6005600   -10.2058700   143.2355000   
7725000000    -12.3437700   144.8139000   14.4159500    43.2447800    -19.3520700   -18.8956100   -10.1479600   141.7910000   
7750000000    -12.2201700   143.2623000   14.3848400    41.6586800    -19.3574300   -20.1853400   -10.1109400   140.2273000   
7775000000    -12.0899900   141.7491000   14.3325200    40.0234600    -19.3620300   -21.4833900   -10.0611200   138.4497000   
7800000000    -11.9565100   140.3309000   14.3146700    38.5212600    -19.3670100   -22.7783800   -10.1017200   137.1869000   
7825000000    -11.8211400   139.0321000   14.2855400    36.8205900    -19.3714300   -24.0691400   -10.0806400   135.6895000   
7850000000    -11.6903500   137.7954000   14.2396200    35.1933400    -19.3762900   -25.3638200   -10.0909500   133.9996000   
7875000000    -11.5685400   136.6388000   14.2248800    33.6047900    -19.3826300   -26.6374400   -10.1077000   132.6373000   
7900000000    -11.4510200   135.4453000   14.1901000    31.9265000    -19.3859900   -27.9471200   -10.0532600   131.0088000   
7925000000    -11.3379000   134.3176000   14.1480800    30.3979400    -19.3918100   -29.2403100   -10.0256400   129.0454000   
7950000000    -11.2407300   133.2470000   14.1160100    28.7776600    -19.4001400   -30.5239900   -9.9955510    127.5874000   
7975000000    -11.1461300   132.0934000   14.0574900    27.2843300    -19.4047200   -31.8250800   -9.9919690    125.6573000   
8000000000    -11.0734800   130.9074000   14.0507800    25.6117500    -19.4121400   -33.1246400   -10.0131400   124.5288000   
8025000000    -11.0068300   129.6193000   14.0235600    24.0510500    -19.4178900   -34.4320500   -10.0457200   123.1341000   
8050000000    -10.9519800   128.2701000   13.9831400    22.3417100    -19.4258800   -35.7334400   -9.9797200    121.7334000   
8075000000    -10.8920800   126.9095000   13.9615500    20.7680800    -19.4333400   -37.0058600   -9.9229220    120.4834000   
8100000000    -10.8384100   125.3567000   13.9054100    19.1623800    -19.4387600   -38.3089100   -9.8185600    118.7972000   
8125000000    -10.7851400   123.7771000   13.8838700    17.6178600    -19.4460800   -39.6053400   -9.7523840    117.6259000   
8150000000    -10.7328100   122.2478000   13.8402300    15.9756300    -19.4553400   -40.8757400   -9.6549650    116.4235000   
8175000000    -10.6695600   120.6807000   13.7902400    14.3788900    -19.4627400   -42.1609100   -9.5813400    115.0965000   
8200000000    -10.6030600   119.1391000   13.7639400    12.8485200    -19.4721500   -43.4234000   -9.5696170    114.0489000   
8225000000    -10.5387200   117.6214000   13.7509400    11.1574900    -19.4811800   -44.6946000   -9.4920240    113.2162000   
8250000000    -10.4689800   116.1525000   13.6929000    9.5847230     -19.4903400   -45.9645700   -9.4193500    111.7426000   
8275000000    -10.4008100   114.7392000   13.6452500    8.0384040     -19.5016000   -47.2316800   -9.3663290    110.4641000   
8300000000    -10.3331200   113.4432000   13.6097400    6.5699120     -19.5119200   -48.4913500   -9.3226830    109.2509000   
8325000000    -10.2696700   112.1630000   13.5569400    4.9580350     -19.5224000   -49.7685500   -9.2735340    108.0512000   
8350000000    -10.2095600   110.9776000   13.5084100    3.4855160     -19.5335400   -51.0264400   -9.2953400    106.7795000   
8375000000    -10.1541200   109.8781000   13.4942200    1.9658670     -19.5423000   -52.2950400   -9.3241480    105.8302000   
8400000000    -10.0982000   108.8411000   13.4566800    0.4335482     -19.5521200   -53.5488200   -9.3449840    104.7073000   
8425000000    -10.0474600   107.8083000   13.4272800    -1.1438290    -19.5597800   -54.8090300   -9.3437710    103.5248000   
8450000000    -10.0056800   106.8767000   13.3814400    -2.7222490    -19.5698800   -56.0508000   -9.3199780    102.1283000   
8475000000    -9.9619630    105.8848000   13.3661900    -4.2217460    -19.5759900   -57.3125300   -9.3489050    101.0977000   
8500000000    -9.9190500    104.9249000   13.3094200    -5.8411740    -19.5817500   -58.5591600   -9.3175770    99.7363400    
8525000000    -9.8849810    103.8984000   13.3004300    -7.2972590    -19.5860700   -59.8300300   -9.3875840    98.8295500    
8550000000    -9.8501090    102.8403000   13.2639800    -8.9079690    -19.5918400   -61.0923500   -9.4085930    97.5944600    
8575000000    -9.8110070    101.6847000   13.2534600    -10.5958200   -19.5938500   -62.3774700   -9.4117030    96.7323500    
8600000000    -9.7817990    100.5099000   13.2105400    -12.1569000   -19.6017200   -63.6674700   -9.3923510    95.2854500    
8625000000    -9.7361680    99.3134200    13.1758300    -13.8060200   -19.6057100   -64.9465500   -9.3647720    93.9463700    
8650000000    -9.6859560    98.0767000    13.1259900    -15.3608300   -19.6102800   -66.2237900   -9.3344750    92.4561100    
8675000000    -9.6448710    96.7594500    13.0981000    -16.7841300   -19.6164000   -67.5381900   -9.3465540    91.1451100    
8700000000    -9.5963240    95.5036300    13.0630600    -18.5256800   -19.6234600   -68.8157300   -9.3037940    90.0716300    
8725000000    -9.5508520    94.1708500    13.0156500    -20.1751600   -19.6285300   -70.1228800   -9.2849710    88.6837600    
8750000000    -9.5092930    92.8469300    12.9803300    -21.6075100   -19.6372500   -71.4273700   -9.3054240    87.4148600    
8775000000    -9.4608960    91.5658400    12.9627600    -23.3881200   -19.6452400   -72.7136800   -9.2408430    86.4978200    
8800000000    -9.4196960    90.2491500    12.8976400    -24.9182400   -19.6542100   -74.0169000   -9.2008130    84.8815800    
8825000000    -9.3762470    88.9939300    12.8644900    -26.3973800   -19.6650200   -75.2996600   -9.1945870    83.6018000    
8850000000    -9.3271990    87.7875500    12.8361800    -27.9626000   -19.6737200   -76.5738500   -9.1691640    82.4896500    
8875000000    -9.2843020    86.5794200    12.7917100    -29.5181300   -19.6812900   -77.8674900   -9.1510510    81.2589100    
8900000000    -9.2520220    85.4407900    12.7595900    -31.2062900   -19.6920600   -79.1517900   -9.1366960    80.3570900    
8925000000    -9.2231740    84.2834100    12.7141800    -32.7186500   -19.6994800   -80.4421900   -9.1493120    79.1528500    
8950000000    -9.1950400    83.0728100    12.6801400    -34.3458600   -19.7051500   -81.7448300   -9.1256900    78.1118500    
8975000000    -9.1733790    81.8449300    12.6517000    -35.8453400   -19.7122300   -83.0468300   -9.1400290    76.9072000    
9000000000    -9.1565780    80.5831500    12.6055700    -37.4013600   -19.7191400   -84.3602900   -9.1243310    75.6644400    
9025000000    -9.1368890    79.2971400    12.5686100    -38.9713400   -19.7265100   -85.6649400   -9.1074060    74.5810300    
9050000000    -9.1145370    78.0042600    12.5410800    -40.5528100   -19.7358600   -86.9674600   -9.0943440    73.6145000    
9075000000    -9.0831720    76.6693000    12.5150000    -42.1045300   -19.7431400   -88.2647900   -9.0959500    72.6351900    
9100000000    -9.0459290    75.3424200    12.4692800    -43.7233000   -19.7514100   -89.5643800   -9.0945490    71.4522700    
9125000000    -9.0104610    74.0233600    12.4515100    -45.3935900   -19.7620400   -90.8655100   -9.0962110    70.4956300    
9150000000    -8.9615080    72.7315500    12.4033800    -46.9749800   -19.7714400   -92.1527200   -9.0628780    69.0312900    
9175000000    -8.9089210    71.4494800    12.3543100    -48.4824000   -19.7812700   -93.4351200   -9.0548920    67.5764200    
9200000000    -8.8570140    70.2246600    12.3206900    -49.9980200   -19.7933700   -94.7120900   -9.0571060    66.2827500    
9225000000    -8.8058550    69.0010700    12.2780100    -51.6031200   -19.8053700   -95.9971200   -9.0284860    65.1869400    
9250000000    -8.7539960    67.8304100    12.2376300    -53.1640600   -19.8164800   -97.2747500   -9.0245790    64.1342000    
9275000000    -8.7046840    66.6692400    12.2002100    -54.6822100   -19.8277600   -98.5429200   -9.0372100    63.0118000    
9300000000    -8.6592750    65.5286600    12.1728700    -56.2668200   -19.8377200   -99.8128400   -9.0445000    61.9477900    
9325000000    -8.6224990    64.3579600    12.1188000    -57.8396300   -19.8480500   -101.0979000  -9.0147290    60.5770900    
9350000000    -8.5855930    63.2136600    12.0708700    -59.4089600   -19.8592000   -102.3677000  -8.9864440    59.3242000    
9375000000    -8.5503870    62.0649600    12.0350400    -60.8149100   -19.8714700   -103.6400000  -8.9848850    58.0434000    
9400000000    -8.5140300    60.9261400    11.9854600    -62.2927700   -19.8820400   -104.8982000  -8.9646950    56.8360300    
9425000000    -8.4790180    59.8358200    11.9506400    -63.9073300   -19.8937500   -106.1519000  -8.9403580    55.9907500    
9450000000    -8.4497400    58.7866800    11.9165400    -65.3837700   -19.9055300   -107.4045000  -8.9552760    55.0305200    
9475000000    -8.4225760    57.6986100    11.8681800    -66.9502300   -19.9146000   -108.6668000  -8.9344020    54.0247600    
9500000000    -8.4032800    56.6822300    11.8276700    -68.5219600   -19.9276600   -109.9179000  -8.9230000    52.9930200    
9525000000    -8.3852210    55.6129300    11.7893900    -69.9743000   -19.9374300   -111.1744000  -8.9272400    51.9753800    
9550000000    -8.3716400    54.5341700    11.7336200    -71.4081000   -19.9449300   -112.4338000  -8.9205870    50.7281700    
9575000000    -8.3624220    53.4798400    11.7241500    -72.9601400   -19.9542500   -113.7052000  -8.9355510    50.1152400    
9600000000    -8.3567600    52.4166700    11.6678900    -74.5208900   -19.9637800   -114.9615000  -8.9029210    49.1947000    
9625000000    -8.3501770    51.3344900    11.6432300    -76.0056000   -19.9718200   -116.2257000  -8.9133210    48.3594600    
9650000000    -8.3451290    50.2672400    11.6181300    -77.5335900   -19.9816400   -117.4725000  -8.9218390    47.5511600    
9675000000    -8.3334390    49.1503500    11.5777700    -79.1635700   -19.9873400   -118.7217000  -8.9049350    46.6959600    
9700000000    -8.3251240    48.0442000    11.5404700    -80.6292800   -19.9938800   -119.9837000  -8.9004590    45.6529000    
9725000000    -8.3134100    46.9291300    11.5063700    -82.1278500   -20.0014600   -121.2467000  -8.9118800    44.6977200    
9750000000    -8.2994530    45.8127100    11.4681900    -83.6408500   -20.0082500   -122.5005000  -8.9172600    43.7261500    
9775000000    -8.2864580    44.6694400    11.4213200    -85.1949500   -20.0153900   -123.7724000  -8.9062410    42.6087000    
9800000000    -8.2761770    43.5380900    11.3949700    -86.6438700   -20.0248400   -125.0430000  -8.9358460    41.6018000    
9825000000    -8.2619430    42.3987600    11.3606100    -88.2044400   -20.0320200   -126.3052000  -8.9251790    40.6336900    
9850000000    -8.2484950    41.2261500    11.3268500    -89.7122300   -20.0402100   -127.5786000  -8.9238870    39.4996700    
9875000000    -8.2325800    40.0382200    11.2933100    -91.2254500   -20.0502300   -128.8503000  -8.9267310    38.4335200    
9900000000    -8.2141250    38.8147500    11.2394500    -92.7545600   -20.0623800   -130.1230000  -8.8897290    37.0961000    
9925000000    -8.1935440    37.5274300    11.2001700    -94.3296600   -20.0739300   -131.4211000  -8.8692270    35.9898700    
9950000000    -8.1650840    36.0350800    11.1634200    -95.9380800   -20.0882100   -132.9071000  -8.8412830    34.8519600    
9975000000    -8.1289240    34.3604900    11.1280000    -97.5514000   -20.1056300   -134.5741000  -8.8192970    33.7608600    
10000000000   -8.0869870    32.4940300    11.0814900    -99.0189300   -20.1299700   -136.4442000  -8.8006840    32.4484800    
10050000000   -8.0341030    30.5108200    10.9903900    -102.1224000  -20.1571700   -138.4879000  -8.7027180    30.1154800    
10100000000   -7.9765630    28.4174000    10.9023000    -105.2042000  -20.1834100   -140.7127000  -8.6254840    28.1730000    
10150000000   -7.9150780    26.2809100    10.8220200    -108.3659000  -20.2105700   -143.0919000  -8.5625520    26.5585800    
10200000000   -7.8522180    24.0468800    10.7463700    -111.4077000  -20.2361600   -145.6167000  -8.5309520    24.9685800    
10250000000   -7.7962260    21.9760800    10.6507200    -114.2905000  -20.2636000   -148.1322000  -8.5119270    23.1863700    
10300000000   -7.7474270    19.9184300    10.5835500    -117.4085000  -20.2858200   -150.6291000  -8.4731580    21.8029700    
10350000000   -7.7094350    17.8037900    10.4920600    -120.2514000  -20.3040200   -153.1447000  -8.4655800    20.0117700    
10400000000   -7.6676430    15.5964200    10.4412500    -123.2998000  -20.3215800   -155.6735000  -8.4842160    18.4731800    
10450000000   -7.6229190    13.3774400    10.3472500    -126.3700000  -20.3464300   -158.2054000  -8.4558380    16.2693300    
10500000000   -7.5723300    11.0276100    10.2877600    -129.4400000  -20.3719900   -160.7573000  -8.4335900    14.1036400    
10550000000   -7.5164530    8.5745130     10.2048400    -132.5763000  -20.4022100   -163.3546000  -8.3960290    11.8262200    
10600000000   -7.4517710    6.1114640     10.1093300    -135.6870000  -20.4348700   -165.9691000  -8.3673420    9.4441850     
10650000000   -7.3799800    3.7639250     9.9826350     -138.8575000  -20.4703100   -168.5679000  -8.2779110    6.9963210     
10700000000   -7.3054660    1.5830380     9.8924760     -141.8734000  -20.5114300   -171.1198000  -8.2196320    4.8436500     
10750000000   -7.2402680    -0.4461072    9.8116030     -144.9021000  -20.5500600   -173.6275000  -8.1787830    3.3088740     
10800000000   -7.1940100    -2.3599470    9.7019280     -147.7704000  -20.5797400   -176.1223000  -8.1110260    1.5840080     
10850000000   -7.1689460    -4.1793610    9.6204430     -150.8911000  -20.6087500   -178.5937000  -8.0263990    0.3832399     
10900000000   -7.1575050    -6.0129490    9.5372940     -153.7496000  -20.6334200   178.9546000   -7.9828420    -1.0331990    
10950000000   -7.1524580    -7.9861840    9.4660830     -156.4399000  -20.6537100   176.5132000   -7.9707710    -2.5899700    
11000000000   -7.1536710    -10.1523200   9.4002760     -159.6160000  -20.6756700   174.0426000   -7.8903360    -4.1392630    
11050000000   -7.1482180    -12.6366700   9.3400620     -162.6764000  -20.6916300   171.5216000   -7.8407250    -6.0731310    
11100000000   -7.1171260    -15.3123300   9.2658420     -165.7426000  -20.7148500   168.9420000   -7.8030610    -8.1952930    
11150000000   -7.0499760    -17.9673100   9.1663750     -168.8432000  -20.7515200   166.3788000   -7.7544070    -10.5156700   
11200000000   -6.9669800    -20.4877400   9.0661940     -171.9479000  -20.7893600   163.8156000   -7.7249470    -13.0688800   
11250000000   -6.8734560    -22.8060800   8.9578730     -175.1979000  -20.8330700   161.2809000   -7.6981750    -15.2534300   
11300000000   -6.7774450    -24.9270400   8.8278660     -178.0538000  -20.8766400   158.7870000   -7.6816840    -17.1986000   
11350000000   -6.6923960    -26.7699300   8.7173500     179.1552000   -20.9200400   156.3306000   -7.6811910    -19.0771500   
11400000000   -6.6356910    -28.3605800   8.6230340     176.2410000   -20.9614800   153.8844000   -7.6375220    -20.9839600   
11450000000   -6.6172050    -29.9867600   8.5274330     173.4686000   -20.9929900   151.4554000   -7.5680070    -22.9506700   
11500000000   -6.6272660    -31.8625100   8.4387760     170.7379000   -21.0158500   148.9729000   -7.4911310    -24.8057400   
11550000000   -6.6433540    -34.0286800   8.3871460     167.6315000   -21.0385900   146.4777000   -7.4012300    -26.7595900   
11600000000   -6.6548980    -36.4197600   8.3249910     164.4243000   -21.0629100   143.9376000   -7.2639390    -29.0360500   
11650000000   -6.6491890    -39.0033600   8.2468200     161.2950000   -21.0918800   141.3546000   -7.1792100    -31.1696700   
11700000000   -6.6177450    -41.7252000   8.1442960     158.3483000   -21.1220200   138.7516000   -7.1162900    -33.3770300   
11750000000   -6.5572880    -44.3740900   8.0468240     155.1395000   -21.1597900   136.1942000   -7.0421730    -35.4223400   
11800000000   -6.4821160    -46.8045800   7.9271240     152.0620000   -21.2017100   133.6427000   -6.9914650    -37.5299800   
11850000000   -6.4012120    -48.9446800   7.8166810     149.2438000   -21.2483000   131.1751000   -6.9883500    -39.6965800   
11900000000   -6.3358670    -50.8238900   7.7049700     146.3506000   -21.2918600   128.7400000   -6.9249970    -42.0296100   
11950000000   -6.3015700    -52.6220600   7.6250860     143.3984000   -21.3310600   126.3299000   -6.8521820    -44.0451000   
12000000000   -6.3013490    -54.5176000   7.5030790     140.7045000   -21.3617500   123.9095000   -6.7355960    -46.1458100   
12050000000   -6.3186040    -56.5689000   7.4189320     137.9988000   -21.3924200   121.4906000   -6.6299060    -48.2312000   
12100000000   -6.3357520    -58.8075100   7.3495840     134.9755000   -21.4249700   119.0756000   -6.4636640    -50.2937700   
12150000000   -6.3454310    -61.2011000   7.2820770     131.8765000   -21.4601500   116.6986000   -6.3448150    -52.0595000   
12200000000   -6.3412170    -63.7514000   7.1834280     129.0128000   -21.4935500   114.2869000   -6.2710740    -53.6937500   
12250000000   -6.3093150    -66.3771800   7.0573890     126.2248000   -21.5322600   111.8702000   -6.2227660    -55.3019800   
12300000000   -6.2471290    -68.8956500   6.9530410     123.4519000   -21.5723700   109.4788000   -6.2196720    -56.9396600   
12350000000   -6.1686520    -71.1635700   6.8361180     120.6177000   -21.6156200   107.1385000   -6.2326150    -58.6722900   
12400000000   -6.0977560    -73.2038700   6.7178960     117.8436000   -21.6555700   104.8148000   -6.2392880    -60.7321700   
12450000000   -6.0469260    -75.1601300   6.6314680     115.0528000   -21.6901300   102.4668000   -6.2336050    -63.0209500   
12500000000   -6.0184460    -77.1621600   6.5496220     112.2765000   -21.7174600   100.0710000   -6.2048230    -65.4378900   
12550000000   -6.0076640    -79.3097200   6.4638340     109.5157000   -21.7422200   97.6389500    -6.1618380    -67.9681200   
12600000000   -6.0097950    -81.6166800   6.3788700     106.6010000   -21.7654300   95.1821600    -6.0741940    -70.6061500   
12650000000   -6.0161180    -84.0973400   6.3113280     103.4836000   -21.7928000   92.7205300    -5.9877010    -73.1546600   
12700000000   -6.0180250    -86.7620100   6.2229200     100.4242000   -21.8226400   90.2323200    -5.8994790    -75.6043900   
12750000000   -5.9989480    -89.6162800   6.1025600     97.4708700    -21.8601300   87.7195700    -5.8286070    -77.8381800   
12800000000   -5.9555620    -92.5261300   5.9898320     94.6596500    -21.9016000   85.2118100    -5.7657420    -79.9553400   
12850000000   -5.8881080    -95.3124200   5.8809300     91.7340100    -21.9474200   82.7414700    -5.7262900    -81.9428500   
12900000000   -5.8096980    -97.8765300   5.7544780     88.9047700    -21.9944300   80.3136500    -5.7100450    -84.0503000   
12950000000   -5.7340790    -100.2678000  5.6342380     85.9996100    -22.0410400   77.9192800    -5.6995030    -86.2968300   
13000000000   -5.6667280    -102.5689000  5.5425400     83.0418100    -22.0842100   75.5093800    -5.6913830    -88.5140100   
13050000000   -5.6105970    -104.8255000  5.4346520     80.3754300    -22.1258500   73.1030200    -5.6699500    -90.8493000   
13100000000   -5.5643220    -107.0028000  5.3286400     77.6954100    -22.1635000   70.7260800    -5.6572050    -93.5153400   
13150000000   -5.5321630    -109.0574000  5.2322700     74.7954500    -22.2001900   68.4088600    -5.5936210    -96.3541200   
13200000000   -5.5159850    -111.1191000  5.1441490     71.8381400    -22.2390600   66.0958300    -5.5158540    -99.0416100   
13250000000   -5.5104010    -113.3680000  5.0309630     69.1848100    -22.2777200   63.7760700    -5.4469180    -101.4699000  
13300000000   -5.4956150    -115.7670000  4.9142790     66.6754900    -22.3167700   61.4281700    -5.3796310    -103.8440000  
13350000000   -5.4686690    -118.1649000  4.8010540     63.9841700    -22.3593100   59.1084300    -5.2984750    -106.0426000  
13400000000   -5.4323920    -120.4865000  4.6982830     61.0885400    -22.4045800   56.8049300    -5.2512880    -108.1704000  
13450000000   -5.3993610    -122.7926000  4.5764450     58.3202200    -22.4501400   54.5004200    -5.2280690    -110.3995000  
13500000000   -5.3630910    -125.1628000  4.4630030     55.5558600    -22.4987500   52.1668200    -5.1947080    -112.8460000  
13550000000   -5.3206230    -127.4759000  4.3426680     52.9315500    -22.5481800   49.8525700    -5.1428310    -115.3092000  
13600000000   -5.2791730    -129.5914000  4.2220150     50.1784100    -22.5962000   47.6077300    -5.0912300    -117.8640000  
13650000000   -5.2496050    -131.5426000  4.0999570     47.4860800    -22.6398100   45.4184000    -5.0002560    -120.3229000  
13700000000   -5.2354440    -133.4338000  3.9828350     44.9184900    -22.6795200   43.2847900    -4.8986250    -122.2565000  
13750000000   -5.2365920    -135.3569000  3.8864700     42.5565800    -22.7126800   41.2053100    -4.8303830    -123.8929000  
13800000000   -5.2450160    -137.3793000  3.7829820     40.2923200    -22.7337400   39.1318400    -4.7733900    -125.6368000  
13850000000   -5.2530830    -139.5284000  3.7123730     37.9944300    -22.7439500   37.0191000    -4.7207340    -127.2446000  
13900000000   -5.2554320    -141.7920000  3.6551800     35.4917000    -22.7489600   34.8737000    -4.7220430    -128.6567000  
13950000000   -5.2578830    -144.1586000  3.5929410     32.8264900    -22.7498800   32.6604800    -4.7755890    -130.4640000  
14000000000   -5.2597180    -146.6885000  3.5318530     30.0029900    -22.7523000   30.3720400    -4.8249960    -132.9839000  
14050000000   -5.2510160    -149.3315000  3.4632960     27.2658200    -22.7577600   28.0027100    -4.8533430    -135.7437000  
14100000000   -5.2353540    -151.9391000  3.3934120     24.4260700    -22.7672200   25.5741200    -4.8809890    -138.7561000  
14150000000   -5.2262430    -154.4694000  3.2947970     21.4675400    -22.7868600   23.1492100    -4.8651110    -142.1199000  
14200000000   -5.2285390    -156.9844000  3.2008900     18.5441200    -22.8097500   20.7447400    -4.7911930    -145.3624000  
14250000000   -5.2358300    -159.5419000  3.0801430     15.8055500    -22.8334800   18.3554000    -4.7035440    -147.9777000  
14300000000   -5.2491070    -162.1488000  2.9857510     13.1929600    -22.8583900   16.0100700    -4.6309600    -150.3303000  
14350000000   -5.2673430    -164.8842000  2.8850990     10.4226400    -22.8802000   13.7037300    -4.5670510    -152.5633000  
14400000000   -5.2771090    -167.7995000  2.7928170     7.8056350     -22.8973200   11.3738300    -4.5056090    -154.4288000  
14450000000   -5.2654640    -170.8495000  2.7197270     5.3444090     -22.9142200   9.0328300     -4.4965610    -156.1316000  
14500000000   -5.2312660    -173.8926000  2.6397100     2.6272280     -22.9350800   6.6881550     -4.5176230    -158.2432000  
14550000000   -5.1811290    -176.8024000  2.5312130     -0.2810038    -22.9559600   4.3592770     -4.5280800    -160.6393000  
14600000000   -5.1235720    -179.5361000  2.4222640     -3.0811530    -22.9824000   2.0324410     -4.5408720    -162.9865000  
14650000000   -5.0630450    177.9470000   2.3309550     -5.6348330    -23.0135300   -0.2705961    -4.5772310    -165.6216000  
14700000000   -5.0114280    175.6913000   2.2131560     -8.2327360    -23.0448300   -2.5060240    -4.5810580    -168.7384000  
14750000000   -4.9789300    173.6045000   2.1052690     -10.7801400   -23.0704000   -4.6810140    -4.5142640    -171.7422000  
14800000000   -4.9683070    171.5598000   1.9931990     -13.1181700   -23.0916400   -6.8262520    -4.4512520    -174.1213000  
14850000000   -4.9795810    169.3751000   1.8992570     -15.4229700   -23.1043300   -8.9197040    -4.3993690    -176.4123000  
14900000000   -4.9966120    166.8197000   1.8412020     -17.9280100   -23.1168100   -11.0433200   -4.3140880    -178.7301000  
14950000000   -4.9943170    163.9193000   1.7756400     -20.3106900   -23.1245600   -13.2154300   -4.2264700    179.6158000   
15000000000   -4.9569980    160.8983000   1.7102160     -22.6448100   -23.1322700   -15.4281800   -4.2229300    178.3026000   
15050000000   -4.8872230    157.9948000   1.6312500     -25.4956800   -23.1413300   -17.6573600   -4.2672030    176.4745000   
15100000000   -4.7978150    155.3201000   1.5213540     -28.4767500   -23.1599000   -19.8431300   -4.2988730    174.4109000   
15150000000   -4.6984850    153.0158000   1.4103900     -30.8029600   -23.1795300   -21.9792700   -4.3542400    172.3961000   
15200000000   -4.6033920    151.2335000   1.3145620     -32.8956300   -23.1934300   -24.0878600   -4.4349350    169.9009000   
15250000000   -4.5429140    149.9331000   1.2386600     -35.3001400   -23.2020800   -26.1157800   -4.4775660    166.6273000   
15300000000   -4.5310850    148.8056000   1.1484300     -37.5255500   -23.2022300   -28.1374200   -4.4531680    163.3867000   
15350000000   -4.5625150    147.5699000   1.0963360     -39.4590200   -23.1941400   -30.1803500   -4.4048930    160.3636000   
15400000000   -4.6355750    146.0096000   1.0436590     -41.7571500   -23.1820000   -32.2548900   -4.3348630    157.3195000   
15450000000   -4.7300520    143.8825000   0.9907531     -44.5120600   -23.1584700   -34.4117900   -4.2245140    154.6810000   
15500000000   -4.8123780    141.0747000   0.9477476     -47.0381200   -23.1389200   -36.6955600   -4.1487610    152.7734000   
15550000000   -4.8576900    137.7743000   0.9051163     -49.5219700   -23.1271600   -39.0820300   -4.1300340    151.0942000   
15600000000   -4.8534290    134.2767000   0.8424639     -52.4318500   -23.1203900   -41.5352400   -4.1279950    149.1728000   
15650000000   -4.8125080    130.8869000   0.7392409     -55.5943900   -23.1264400   -43.8964600   -4.1509830    147.3407000   
15700000000   -4.7439640    127.8012000   0.6566349     -58.1466300   -23.1288000   -46.2623800   -4.2034970    145.5908000   
15750000000   -4.6602870    125.1688000   0.5922026     -60.6017900   -23.1246700   -48.5602400   -4.2792590    143.2057000   
15800000000   -4.5951790    122.9867000   0.4911366     -63.2825900   -23.1202000   -50.8034000   -4.3334640    140.4424000   
15850000000   -4.5576180    121.0745000   0.4238625     -65.5251100   -23.0976300   -53.0410300   -4.3364860    137.7512000   
15900000000   -4.5542590    119.2466000   0.4131018     -67.4494100   -23.0696600   -55.2626900   -4.3591840    135.0610000   
15950000000   -4.5873920    117.3300000   0.4127747     -70.0446900   -23.0289400   -57.5011100   -4.3755560    131.8013000   
16000000000   -4.6428630    115.0170000   0.3887196     -72.8627100   -22.9844500   -59.8770500   -4.3427380    128.4717000   
16050000000   -4.6979330    112.1583000   0.3521090     -75.5298300   -22.9645900   -62.3529400   -4.3047900    125.4291000   
16100000000   -4.7263030    108.8865000   0.3215427     -78.2477500   -22.9533700   -64.9340500   -4.2693930    122.4073000   
16150000000   -4.7129030    105.5027000   0.2335696     -81.3615000   -22.9624400   -67.5712100   -4.2144310    119.4234000   
16200000000   -4.6754940    102.2808000   0.0935307     -84.6232700   -22.9934000   -70.1367300   -4.1788350    116.7699000   
16250000000   -4.6189480    99.3107500    -0.0495510    -87.3173800   -23.0343500   -72.6259700   -4.1518610    114.4720000   
16300000000   -4.5568310    96.6799300    -0.1871241    -89.9298300   -23.0816700   -74.9865600   -4.1231580    112.0606000   
16350000000   -4.5081410    94.4485900    -0.3280033    -92.4247500   -23.1139600   -77.2873200   -4.0827510    109.8896000   
16400000000   -4.4854630    92.5728100    -0.4165755    -94.5244600   -23.1230400   -79.4487700   -4.0585190    108.0881000   
16450000000   -4.4966990    90.8404200    -0.4652389    -96.5105100   -23.1194500   -81.5530300   -4.0616160    106.1954000   
16500000000   -4.5464050    88.9619100    -0.4902940    -98.9142200   -23.0940300   -83.7024100   -4.0695600    103.9715000   
16550000000   -4.6158220    86.6485400    -0.5153087    -101.3576000  -23.0545100   -85.9062600   -4.0974100    101.5984000   
16600000000   -4.6780490    83.8458200    -0.4924415    -103.7222000  -23.0223600   -88.3217800   -4.1193260    98.9663600    
16650000000   -4.7094960    80.7086300    -0.4907776    -106.5444000  -23.0062300   -90.8613500   -4.1298890    95.9631900    
16700000000   -4.7104990    77.4701500    -0.5707672    -109.6720000  -23.0070800   -93.3591900   -4.1107690    92.8918800    
16750000000   -4.6839170    74.2207600    -0.6995035    -112.7889000  -23.0138300   -95.9062300   -4.0667650    89.8827600    
16800000000   -4.6352690    71.0262100    -0.8264174    -115.5005000  -23.0328400   -98.4056600   -3.9947470    87.4030400    
16850000000   -4.5668400    68.0582500    -0.9593000    -118.0370000  -23.0504600   -100.8501000  -3.9385110    85.4519800    
16900000000   -4.4921810    65.4113800    -1.0527510    -120.4203000  -23.0726300   -103.2321000  -3.9160790    83.7760100    
16950000000   -4.4236590    63.0809200    -1.1097110    -122.6622000  -23.0752500   -105.4848000  -3.9239590    82.0856600    
17000000000   -4.3775910    60.9407600    -1.1498270    -124.9070000  -23.0521400   -107.6704000  -3.9211700    80.4478400    
17050000000   -4.3515630    58.7726800    -1.2049310    -127.4954000  -23.0012900   -109.9436000  -3.9681070    78.6214800    
17100000000   -4.3343430    56.4550000    -1.1933220    -129.8843000  -22.9646000   -112.2243000  -4.0366460    76.4280600    
17150000000   -4.3150320    54.0165900    -1.1564680    -132.3235000  -22.9272900   -114.6013000  -4.1053250    73.7760800    
17200000000   -4.2903450    51.5603500    -1.1606880    -135.0372000  -22.8995500   -117.1126000  -4.1410950    70.5677300    
17250000000   -4.2660410    49.1676700    -1.2474220    -137.9207000  -22.8818600   -119.6207000  -4.1657300    67.2109800    
17300000000   -4.2492300    46.7898400    -1.3194560    -140.7129000  -22.8790200   -122.0431000  -4.1523210    63.8919600    
17350000000   -4.2316810    44.4206500    -1.4056120    -143.4239000  -22.8820100   -124.5374000  -4.1026610    60.8403100    
17400000000   -4.2204940    42.1365600    -1.5294740    -145.9539000  -22.9048500   -126.9077000  -4.0460910    58.2703500    
17450000000   -4.2229950    39.8957800    -1.6188960    -148.2967000  -22.9136100   -129.2738000  -3.9727030    55.9429800    
17500000000   -4.2310930    37.6626700    -1.6693720    -150.5994000  -22.9150900   -131.6266000  -3.9237310    54.1766900    
17550000000   -4.2462220    35.3650900    -1.7310930    -152.9596000  -22.9049100   -133.8539000  -3.9099520    52.5110700    
17600000000   -4.2661140    32.8958700    -1.7926010    -155.5074000  -22.8824000   -136.1749000  -3.9597790    50.7185000    
17650000000   -4.2716050    30.2510300    -1.7773100    -158.0241000  -22.8506600   -138.6057000  -3.9976400    48.4476100    
17700000000   -4.2632830    27.5453700    -1.7615150    -160.6724000  -22.8276400   -141.1050000  -4.0529210    45.8934600    
17750000000   -4.2464190    24.8923700    -1.7890940    -163.5876000  -22.8085400   -143.7071000  -4.1162140    42.8782700    
17800000000   -4.2250800    22.3103500    -1.8579830    -166.4618000  -22.7874300   -146.2182000  -4.1668090    39.6110700    
17850000000   -4.2022690    19.6874600    -1.9247730    -169.3609000  -22.7716900   -148.7895000  -4.1579380    35.9131500    
17900000000   -4.1740830    17.0698800    -1.9840500    -172.1924000  -22.7715800   -151.3712000  -4.0785880    32.5002500    
17950000000   -4.1457920    14.5745600    -2.0538720    -174.6983000  -22.7870200   -153.8510000  -3.9981650    29.7223100    
18000000000   -4.1291060    12.1784700    -2.1188860    -177.3726000  -22.7905800   -156.3309000  -3.9600300    27.2259700    
18050000000   -4.1145430    9.7776270     -2.1944070    179.9271000   -22.7928800   -158.7511000  -3.8799510    24.9169000    
18100000000   -4.0953810    7.3161430     -2.2927390    177.3983000   -22.7865100   -161.1228000  -3.8265430    22.8884400    
18150000000   -4.0726780    4.8903410     -2.3571050    175.0785000   -22.7790600   -163.4313000  -3.8152330    21.2067000    
18200000000   -4.0487310    2.6174330     -2.3929250    172.5842000   -22.7856200   -165.8080000  -3.8446370    19.1441200    
18250000000   -4.0328560    0.4412724     -2.4609210    170.0918000   -22.7747100   -168.1760000  -3.8546600    16.9604000    
18300000000   -4.0213950    -1.7270610    -2.5408990    167.7170000   -22.7571500   -170.4423000  -3.8907140    14.7013700    
18350000000   -4.0128130    -3.9034130    -2.5717780    165.2032000   -22.7345700   -172.7267000  -3.9181470    11.9588600    
18400000000   -4.0093140    -6.0856540    -2.6037220    162.5040000   -22.7057100   -175.1076000  -3.9219900    8.9780140     
18450000000   -4.0160030    -8.2617130    -2.6528140    159.9390000   -22.6787200   -177.5323000  -3.8970050    6.2674020     
18500000000   -4.0262880    -10.4840500   -2.6876300    157.2989000   -22.6608700   179.9090000   -3.8902650    3.5421950     
18550000000   -4.0428990    -12.8300500   -2.7164600    154.6687000   -22.6392100   177.5111000   -3.8780450    0.7184823     
18600000000   -4.0510580    -15.2389800   -2.7899850    151.9081000   -22.6024300   175.0894000   -3.8396640    -2.1542920    
18650000000   -4.0522750    -17.6362900   -2.8677160    149.4021000   -22.5824600   172.5401000   -3.8074410    -4.5094730    
18700000000   -4.0566910    -19.9848000   -2.9199090    146.7578000   -22.5808800   169.9921000   -3.8049040    -7.1541170    
18750000000   -4.0644450    -22.3029700   -2.9712210    144.2144000   -22.5832800   167.5947000   -3.7952930    -9.6842130    
18800000000   -4.0653160    -24.5860600   -3.0720250    141.6014000   -22.5877000   165.2097000   -3.7571960    -12.3138700   
18850000000   -4.0649630    -26.8573900   -3.1489580    139.0847000   -22.5819600   162.7227000   -3.7275250    -14.8795000   
18900000000   -4.0649670    -29.1408000   -3.2065590    136.5640000   -22.5605800   160.3884000   -3.6884420    -17.3676200   
18950000000   -4.0663410    -31.4534500   -3.2991770    134.1399000   -22.5732600   157.8461000   -3.6397200    -19.5548600   
19000000000   -4.0659150    -33.7711400   -3.3714800    131.7643000   -22.5743500   155.3455000   -3.5990680    -21.3548200   
19050000000   -4.0608740    -36.1015800   -3.4038040    129.3764000   -22.5661800   152.9465000   -3.6022970    -23.1577700   
19100000000   -4.0551340    -38.4270700   -3.4450140    126.6169000   -22.5533000   150.5043000   -3.6254670    -25.3485600   
19150000000   -4.0524130    -40.8097900   -3.5251330    123.9783000   -22.5356800   147.9607000   -3.6392090    -27.7254300   
19200000000   -4.0545330    -43.2372200   -3.5594460    121.4678000   -22.5287100   145.3527000   -3.6332110    -30.1071600   
19250000000   -4.0525400    -45.7209300   -3.5661110    118.7585000   -22.5175200   142.6689000   -3.6729280    -32.7716800   
19300000000   -4.0472300    -48.2438500   -3.5849560    115.9379000   -22.4975500   140.1695000   -3.6594750    -35.6169300   
19350000000   -4.0424150    -50.7925700   -3.6352970    113.1115000   -22.4860800   137.4771000   -3.6116490    -38.3575600   
19400000000   -4.0286080    -53.3192600   -3.6614180    110.4138000   -22.4786200   134.6932000   -3.5900120    -40.8853500   
19450000000   -4.0061200    -55.8562700   -3.7133690    107.6917000   -22.4750400   131.9648000   -3.5764210    -43.3203400   
19500000000   -3.9791620    -58.3011000   -3.8401390    105.0431000   -22.4797600   129.2760000   -3.5360610    -45.6430600   
19550000000   -3.9513400    -60.6437300   -3.9269170    102.5827000   -22.4696900   126.7680000   -3.5237890    -47.7232400   
19600000000   -3.9335980    -62.8923100   -3.9490550    100.1018000   -22.4807000   124.1265000   -3.5172800    -49.7967600   
19650000000   -3.9231030    -65.1493100   -4.0087050    97.5861100    -22.4786500   121.3110000   -3.5235960    -51.9085800   
19700000000   -3.9148190    -67.4727600   -4.0620100    95.1322800    -22.4705300   118.6202000   -3.5593690    -54.2650200   
19750000000   -3.9107510    -69.8629700   -4.0626540    92.3811300    -22.4547700   116.1897000   -3.5522470    -56.8250200   
19800000000   -3.9131510    -72.2945800   -4.0554910    89.3253400    -22.4245100   113.4682000   -3.6005390    -59.6577100   
19850000000   -3.9056950    -74.7707400   -4.1010970    86.4248300    -22.4378900   110.7200000   -3.5901580    -62.8177100   
19900000000   -3.8966820    -77.0114500   -4.1895050    83.8472200    -22.4587400   108.2877000   -3.6025040    -65.8992100   
19950000000   -3.8758050    -78.9247700   -4.2077120    80.9662900    -22.4708100   106.2034000   -3.5638130    -68.8956600   
20000000000   -3.8532490    -80.3824800   -4.3118020    78.2081800    -22.4984300   104.7011000   -3.5438890    -71.7952500   
