!Mini-Circuits Laboratory
!Date: 7/15/2015 at 12:42:15 PM
!S2P DATA File Format
!Type: MMIC Amplifier
!Model: LVA-123+
!S/N: Unit 2
!Fixture: Unit soldered on TB-841+, no port extension
!PIN OUT: PORT 1 - PIN 2, PORT 2 - PIN 5, GROUND - PADDLE, NOT CONNECTED - ALL OTHER PINS
!TEST CONDITIONS: Temp= -45 (Deg C) RF Power= -25.00 (dBm) V limit=5(V) I limit=150(mA) Z=50 OHM
!PROD RUN: Q16010, DATE CODE: 1527
!WAFER/LOT#: BH175P001-02-01EV
!Network Analyzer: PNA-X N5242A S/N 71404 CAL DUE: 12/5/2015
!P.Supply/Multimeter: HP E3632A S/N 63249 CAL DUE: 12/11/2015
!
# Hz  S  dB  R  50
!Frequency    S11 dB        S11 Deg       S21 dB        S21 Deg       S12 dB        S12 Deg       S22 dB        S22 Deg       
10000000      -11.0880400   155.0230000   14.4953500    -175.1094000  -22.5889900   7.5102860     -10.9150300   -9.4138680    
20000000      -11.4711800   148.1992000   14.9929600    -171.4715000  -22.2961100   8.0439450     -11.2825800   -20.9306900   
30000000      -12.0042900   139.9754000   15.6082600    -169.9123000  -21.9524500   8.3311410     -11.8969300   -31.1458400   
40000000      -12.6872400   130.5526000   16.1641600    -169.9214000  -21.5733000   8.3963800     -12.6453300   -39.6611500   
50000000      -13.5178000   120.0590000   16.6189200    -170.8779000  -21.1685000   8.2337860     -13.5088200   -46.9877100   
60000000      -14.4274400   110.4243000   16.9596200    -172.1455000  -20.8149700   7.4014230     -14.4156000   -53.3198400   
70000000      -15.3882500   101.5030000   17.2260200    -173.7731000  -20.5330200   6.1598110     -15.3567400   -58.3145900   
80000000      -16.3857900   93.3190300    17.4203400    -175.4514000  -20.3192600   4.7066950     -16.2974600   -62.2648700   
90000000      -17.4081000   85.8603900    17.5585000    -177.0915000  -20.1638300   3.2047780     -17.2181000   -65.3707400   
100000000     -18.4124400   79.0445700    17.6596500    -178.6534000  -20.0564000   1.7792690     -18.1187200   -67.5338200   
110000000     -19.4003000   72.7271700    17.7310300    179.8702000   -19.9829600   0.4185401     -18.9822200   -69.0760000   
120000000     -20.3717300   66.7206600    17.7803700    178.4699000   -19.9351300   -0.8609293    -19.7829900   -69.9898700   
130000000     -21.3371100   61.0417000    17.8126400    177.1833000   -19.9058200   -2.0531800    -20.5300700   -70.3338600   
140000000     -22.2994400   55.7970400    17.8330800    175.9577000   -19.8898600   -3.1629260    -21.2321500   -70.0997200   
150000000     -23.2434400   50.9922900    17.8431900    174.8215000   -19.8839600   -4.1998480    -21.8788000   -69.6779900   
160000000     -24.1435800   46.4406000    17.8503900    173.7228000   -19.8851800   -5.1688270    -22.4714800   -68.5703600   
170000000     -25.0247100   42.0420200    17.8516000    172.6838000   -19.8913300   -6.0761500    -22.9650300   -67.4932400   
180000000     -25.9027400   37.7880300    17.8502400    171.7024000   -19.9002000   -6.9354560    -23.3903300   -66.1538400   
190000000     -26.7893100   33.8810700    17.8440500    170.7582000   -19.9111800   -7.7482600    -23.7493500   -64.9216000   
200000000     -27.6407300   30.2731400    17.8389900    169.8532000   -19.9238300   -8.5229330    -24.0416000   -63.4761700   
210000000     -28.4814200   26.8445900    17.8289500    168.9963000   -19.9375500   -9.2631080    -24.2930900   -62.4800000   
220000000     -29.2994800   23.3636200    17.8208300    168.1373000   -19.9512900   -9.9739420    -24.5227000   -61.2551200   
230000000     -30.1505000   19.9347200    17.8124400    167.3108000   -19.9647500   -10.6575000   -24.6895900   -60.0978200   
240000000     -31.0391500   16.7193300    17.8033600    166.5087000   -19.9778500   -11.3188900   -24.8655300   -59.1338000   
250000000     -31.9162200   13.8116000    17.7943600    165.7241000   -19.9914500   -11.9545900   -24.9629100   -58.3270100   
260000000     -32.7827700   11.0606400    17.7846200    164.9511000   -20.0046500   -12.5735500   -25.0464300   -57.5836800   
270000000     -33.6926400   8.3002620     17.7759200    164.1956000   -20.0171200   -13.1784200   -25.1141100   -57.0710700   
280000000     -34.6478800   5.4107030     17.7676900    163.4515000   -20.0290100   -13.7713400   -25.1607000   -56.6600000   
290000000     -35.6637100   2.8037010     17.7597300    162.7212000   -20.0403800   -14.3564100   -25.1838400   -56.3558600   
300000000     -36.6806300   0.3356395     17.7530500    161.9949000   -20.0516700   -14.9313000   -25.2158800   -56.2853900   
310000000     -37.7081400   -2.5082970    17.7456900    161.2827000   -20.0624700   -15.4972600   -25.2484500   -56.3212100   
320000000     -38.8224100   -5.6550140    17.7373200    160.5717000   -20.0727900   -16.0563200   -25.2585700   -56.4162600   
330000000     -40.0307200   -9.9800760    17.7313200    159.8651000   -20.0826200   -16.6078800   -25.2477100   -56.5136800   
340000000     -41.3433900   -14.6289900   17.7252400    159.1851000   -20.0919500   -17.1536800   -25.2336300   -56.6544300   
350000000     -42.6824500   -19.6188600   17.7198000    158.4847000   -20.1007600   -17.6929000   -25.2179800   -56.8205600   
360000000     -43.9310200   -25.7204600   17.7134700    157.7941000   -20.1092100   -18.2233700   -25.1715000   -56.9720300   
370000000     -45.1563000   -33.7565600   17.7081700    157.1225000   -20.1169900   -18.7532600   -25.1723700   -57.2315100   
380000000     -46.2514000   -43.6144300   17.7026300    156.4355000   -20.1243500   -19.2798200   -25.1452600   -57.5101200   
390000000     -47.2042000   -54.0714800   17.6968500    155.7684000   -20.1312300   -19.8035000   -25.1092500   -57.6641900   
400000000     -47.9716400   -64.8112100   17.6917400    155.0922000   -20.1377300   -20.3254000   -25.0866300   -57.9772000   
410000000     -48.3715700   -75.3645200   17.6866400    154.4317000   -20.1438800   -20.8437800   -25.0239200   -58.2544100   
420000000     -48.4103300   -86.5685400   17.6825600    153.7611000   -20.1495900   -21.3604900   -24.9920200   -58.4950900   
430000000     -48.3937500   -97.3929100   17.6775500    153.0983000   -20.1549100   -21.8761100   -24.9446900   -58.8696000   
440000000     -48.2205900   -106.5964000  17.6739300    152.4393000   -20.1600500   -22.3898200   -24.8749600   -59.3548200   
450000000     -47.9578300   -113.7884000  17.6704400    151.7781000   -20.1650600   -22.9020900   -24.8280200   -60.0313400   
460000000     -47.5433600   -119.7630000  17.6663300    151.1230000   -20.1699000   -23.4128700   -24.7753700   -60.3799900   
470000000     -46.9942600   -124.7245000  17.6630500    150.4699000   -20.1745200   -23.9210100   -24.7249100   -60.9603300   
480000000     -46.5414400   -129.4378000  17.6596100    149.8080000   -20.1796000   -24.4239600   -24.6698400   -61.5119700   
490000000     -46.2179900   -133.2276000  17.6564600    149.1649000   -20.1843800   -24.9265300   -24.5924500   -62.0848200   
500000000     -45.9233400   -136.2233000  17.6536600    148.5033000   -20.1888200   -25.4279700   -24.5510500   -62.6328200   
510000000     -45.5871800   -138.8331000  17.6537200    147.8267000   -20.1931500   -25.9284600   -24.5014600   -63.4244400   
520000000     -45.2563400   -141.2982000  17.6502100    147.1759000   -20.1971900   -26.4292900   -24.4472100   -63.9433600   
530000000     -45.0173000   -144.3151000  17.6463900    146.5243000   -20.2011100   -26.9286000   -24.3634100   -64.6837800   
540000000     -44.9576800   -147.2097000  17.6450200    145.8773000   -20.2047800   -27.4282600   -24.3194700   -65.3795500   
550000000     -44.8375800   -149.7261000  17.6413500    145.2283000   -20.2076200   -27.9310900   -24.2655500   -66.0481600   
560000000     -44.7663300   -151.8854000  17.6391700    144.5808000   -20.2104100   -28.4327100   -24.2113200   -66.7629800   
570000000     -44.6666000   -153.9872000  17.6378300    143.9354000   -20.2132400   -28.9350500   -24.1602700   -67.4810900   
580000000     -44.6048400   -156.6214000  17.6351500    143.2936000   -20.2158600   -29.4351200   -24.1098400   -68.2013900   
590000000     -44.6876600   -158.9380000  17.6330900    142.6507000   -20.2183600   -29.9332900   -24.0648300   -68.9679500   
600000000     -44.8078000   -160.9178000  17.6309200    142.0065000   -20.2205400   -30.4333700   -23.9906900   -69.7696200   
610000000     -44.7608300   -162.4042000  17.6286700    141.3636000   -20.2225600   -30.9334000   -23.9338100   -70.5845700   
620000000     -44.7779200   -164.3538000  17.6262700    140.7190000   -20.2244900   -31.4342800   -23.8636200   -71.3176900   
630000000     -44.8360400   -166.7499000  17.6254400    140.0824000   -20.2264000   -31.9348800   -23.8105600   -72.1843900   
640000000     -44.8694500   -169.1166000  17.6230100    139.4336000   -20.2281600   -32.4346800   -23.7451300   -73.0144300   
650000000     -45.0398000   -170.9945000  17.6216900    138.7893000   -20.2298800   -32.9351200   -23.6868200   -73.8731200   
660000000     -45.0176800   -172.7326000  17.6198500    138.1483000   -20.2315600   -33.4360900   -23.6332000   -74.7703900   
670000000     -44.9899900   -174.8311000  17.6171600    137.5058000   -20.2333200   -33.9359200   -23.5815200   -75.5474700   
680000000     -45.0876300   -177.1162000  17.6150400    136.8582000   -20.2351700   -34.4357700   -23.5239000   -76.1776400   
690000000     -45.2226600   -178.8275000  17.6140300    136.2209000   -20.2368300   -34.9353100   -23.4717800   -76.9380400   
700000000     -45.2771500   -179.8423000  17.6117900    135.5800000   -20.2383900   -35.4345200   -23.4159500   -77.6996500   
710000000     -45.3083200   179.0186000   17.6099100    134.9405000   -20.2398600   -35.9331400   -23.3706600   -78.4665000   
720000000     -45.2085000   177.7103000   17.6080400    134.2999000   -20.2413700   -36.4312900   -23.3344400   -79.2423400   
730000000     -45.2555400   176.0150000   17.6064700    133.6600000   -20.2427900   -36.9289500   -23.2843100   -79.9660400   
740000000     -45.3008600   174.5705000   17.6051500    133.0210000   -20.2441900   -37.4251300   -23.2454700   -80.7222600   
750000000     -45.3369300   174.0038000   17.6048800    132.3797000   -20.2453100   -37.9220300   -23.2025700   -81.4179200   
760000000     -45.2800900   173.0157000   17.6032800    131.7394000   -20.2466100   -38.4186800   -23.1726900   -82.2033200   
770000000     -45.3060400   171.4607000   17.6015100    131.1004000   -20.2478000   -38.9156600   -23.1299900   -82.9441500   
780000000     -45.3750500   170.0373000   17.5999600    130.4680000   -20.2489500   -39.4117400   -23.0772900   -83.8850900   
790000000     -45.5261600   168.9894000   17.5993100    129.8281000   -20.2498100   -39.9090300   -23.0367600   -84.6925900   
800000000     -45.6667700   168.0385000   17.5974900    129.1920000   -20.2505800   -40.4067900   -22.9949700   -85.5699400   
810000000     -45.7287000   166.8988000   17.5969300    128.5544000   -20.2512800   -40.9058400   -22.9430900   -86.3446300   
820000000     -45.7685500   164.6144000   17.5952500    127.9148000   -20.2520800   -41.4029700   -22.9025100   -87.1760600   
830000000     -45.9138200   162.2093000   17.5943600    127.2810000   -20.2527000   -41.9002200   -22.8555700   -87.9990000   
840000000     -46.0514400   160.1171000   17.5930800    126.6397000   -20.2532600   -42.3968800   -22.8186700   -88.7267500   
850000000     -46.1400700   158.0699000   17.5918900    126.0039000   -20.2538500   -42.8954000   -22.7713900   -89.5971100   
860000000     -46.1462000   155.8554000   17.5902200    125.3620000   -20.2545500   -43.3938400   -22.7359100   -90.3490100   
870000000     -46.1106600   153.0617000   17.5894000    124.7297000   -20.2552000   -43.8913200   -22.6920200   -91.1582000   
880000000     -46.1310300   150.1329000   17.5886000    124.0878000   -20.2558100   -44.3885900   -22.6472400   -92.0751700   
890000000     -46.1210100   147.8971000   17.5883600    123.4561000   -20.2565500   -44.8862400   -22.6181600   -92.9042700   
900000000     -46.1093300   146.1474000   17.5868000    122.8164000   -20.2571900   -45.3833000   -22.5901100   -93.7325600   
910000000     -45.9980400   144.3939000   17.5859100    122.1779000   -20.2580900   -45.8812200   -22.5617300   -94.6426700   
920000000     -45.9212700   142.6113000   17.5856100    121.5447000   -20.2587400   -46.3780700   -22.5325600   -95.4973100   
930000000     -45.9231900   141.0088000   17.5834600    120.9072000   -20.2593200   -46.8743100   -22.4912700   -96.3667100   
940000000     -45.9921600   140.0446000   17.5834300    120.2695000   -20.2598800   -47.3704100   -22.4397900   -97.1824400   
950000000     -45.9812500   140.3243000   17.5828300    119.6370000   -20.2604600   -47.8669600   -22.3971300   -98.1382900   
960000000     -45.9655300   139.6896000   17.5817300    119.0035000   -20.2607700   -48.3633400   -22.3489600   -99.0013100   
970000000     -46.0218500   138.4108000   17.5808300    118.3641000   -20.2611900   -48.8599100   -22.3062300   -99.7804300   
980000000     -46.3197700   138.0658000   17.5800600    117.7318000   -20.2615300   -49.4635800   -22.2526700   -100.6673000  
990000000     -46.6349500   136.5692000   17.5787200    117.0962000   -20.2624400   -50.1765100   -22.2176800   -101.4344000  
1000000000    -47.0440600   136.1647000   17.5775600    116.4570000   -20.2631500   -50.9930700   -22.1718500   -102.2503000  
1025000000    -47.5415500   135.0743000   17.5762600    114.8598000   -20.2635700   -51.9176300   -22.0852400   -104.0815000  
1050000000    -48.3991100   135.8002000   17.5740100    113.2797000   -20.2640800   -52.9490800   -21.9869600   -105.5726000  
1075000000    -49.6415500   135.9317000   17.5718500    111.6858000   -20.2648400   -54.0867200   -21.8377900   -107.6663000  
1100000000    -51.6763000   139.8213000   17.5708000    110.0983000   -20.2653800   -55.3299300   -21.7309700   -109.4316000  
1125000000    -54.9489300   159.9916000   17.5667600    108.5106000   -20.2660200   -56.5719700   -21.6153400   -111.0791000  
1150000000    -58.4759900   -178.2383000  17.5641700    106.9107000   -20.2661200   -57.8142300   -21.4815800   -112.9987000  
1175000000    -60.4393600   -148.4544000  17.5640100    105.3316000   -20.2664000   -59.0589200   -21.3583800   -114.7051000  
1200000000    -61.3856400   -119.9581000  17.5620700    103.7448000   -20.2669800   -60.3042300   -21.2294900   -116.2023000  
1225000000    -61.7523700   -97.0230400   17.5596900    102.1660000   -20.2674700   -61.5466000   -21.1127700   -118.1097000  
1250000000    -61.3709900   -72.9252800   17.5590500    100.5585000   -20.2677200   -62.7916100   -21.0144500   -120.0301000  
1275000000    -59.7213100   -50.3747500   17.5562100    98.9734600    -20.2681200   -64.0314300   -20.9272500   -121.7657000  
1300000000    -56.8199200   -45.7440100   17.5560400    97.3832200    -20.2682700   -65.2748400   -20.8083900   -123.7539000  
1325000000    -53.2382700   -40.1553200   17.5528100    95.7980500    -20.2679900   -66.5188700   -20.6770000   -125.7924000  
1350000000    -51.2089300   -44.7226600   17.5510500    94.1779200    -20.2679000   -67.7633100   -20.5852300   -127.6125000  
1375000000    -49.8909100   -47.3600300   17.5487400    92.6174200    -20.2675300   -69.0029000   -20.5048800   -129.5303000  
1400000000    -48.6846200   -49.1199500   17.5464300    91.0554900    -20.2673600   -70.2408800   -20.3994100   -131.1578000  
1425000000    -47.6282500   -51.6010100   17.5462000    89.4536100    -20.2671500   -71.4808300   -20.3336800   -133.1329000  
1450000000    -46.9079400   -56.7228900   17.5440800    87.8412000    -20.2668600   -72.7261700   -20.2565100   -134.8718000  
1475000000    -45.7497300   -60.5389900   17.5447100    86.2427800    -20.2666800   -73.9690900   -20.1672600   -136.6167000  
1500000000    -44.8636000   -65.6898800   17.5429500    84.7251000    -20.2668900   -75.2083800   -20.0770600   -138.1880000  
1525000000    -43.7394900   -70.3924800   17.5418100    83.1267500    -20.2666400   -76.4469900   -19.9926800   -139.8015000  
1550000000    -42.6686900   -75.0345700   17.5396500    81.5334300    -20.2666300   -77.6874500   -19.8552800   -141.3046000  
1575000000    -41.6107000   -77.5375800   17.5387600    79.9542400    -20.2664100   -78.9297700   -19.7539500   -142.9067000  
1600000000    -40.6670800   -79.6566200   17.5363000    78.3647500    -20.2660200   -80.1691500   -19.6724200   -144.3836000  
1625000000    -39.7233000   -81.0032500   17.5356700    76.7993600    -20.2656100   -81.4074700   -19.5611900   -145.6592000  
1650000000    -38.9477900   -82.4818300   17.5322700    75.2212800    -20.2651300   -82.6449500   -19.4580000   -147.2975000  
1675000000    -38.2434200   -83.9812500   17.5298800    73.6289100    -20.2642700   -83.8825600   -19.3459700   -149.0342000  
1700000000    -37.6122400   -84.7206600   17.5321900    72.0391500    -20.2634300   -85.1201800   -19.2437000   -150.6218000  
1725000000    -37.0232000   -85.6621600   17.5296200    70.4606100    -20.2623900   -86.3576700   -19.1442900   -152.2718000  
1750000000    -36.5772900   -86.4319600   17.5284100    68.8691300    -20.2611700   -87.5983400   -19.0655600   -153.9565000  
1775000000    -36.1847800   -86.9736000   17.5277200    67.2749700    -20.2600800   -88.8362400   -18.9549600   -155.4996000  
1800000000    -35.7487600   -87.1664900   17.5262900    65.6980100    -20.2589600   -90.0767700   -18.8884900   -157.2851000  
1825000000    -35.3951200   -88.0248000   17.5243400    64.1113300    -20.2577900   -91.3154400   -18.8255900   -159.2394000  
1850000000    -35.0576300   -88.6772800   17.5226600    62.5306700    -20.2565400   -92.5511200   -18.7263300   -161.0707000  
1875000000    -34.7719800   -89.7049500   17.5232000    60.9368500    -20.2554400   -93.7885200   -18.6144000   -162.9892000  
1900000000    -34.4874400   -90.7035900   17.5193600    59.3566700    -20.2540600   -95.0274500   -18.5556200   -164.5809000  
1925000000    -34.2150900   -92.3245700   17.5165700    57.7833900    -20.2526000   -96.2645300   -18.4708600   -166.3359000  
1950000000    -33.9922000   -94.1140700   17.5197400    56.1903800    -20.2509300   -97.5008400   -18.4166700   -167.9218000  
1975000000    -33.8303800   -96.2646400   17.5174500    54.6078500    -20.2489700   -98.7359700   -18.3577900   -169.6169000  
2000000000    -33.6071400   -98.4493900   17.5168800    53.0244100    -20.2462900   -99.9715200   -18.2943900   -171.3419000  
2025000000    -33.4106900   -101.0639000  17.5171600    51.4281600    -20.2439900   -101.2097000  -18.2686600   -172.9190000  
2050000000    -33.2242700   -103.6063000  17.5148700    49.8607100    -20.2413000   -102.4475000  -18.1877000   -174.4444000  
2075000000    -33.0857400   -106.5054000  17.5154200    48.2830900    -20.2390000   -103.6867000  -18.1565100   -176.0258000  
2100000000    -32.9033600   -109.2038000  17.5135800    46.6830500    -20.2362300   -104.9278000  -18.1005500   -177.4564000  
2125000000    -32.6802900   -111.6813000  17.5130800    45.0946600    -20.2335100   -106.1697000  -18.0562100   -178.8945000  
2150000000    -32.4593500   -114.2748000  17.5153300    43.5131200    -20.2305800   -107.4105000  -18.0152400   179.6257000   
2175000000    -32.2716600   -116.4956000  17.5133600    41.9390800    -20.2282100   -108.6550000  -17.9434600   177.9015000   
2200000000    -32.0744400   -118.4950000  17.5127700    40.3337900    -20.2254600   -109.8994000  -17.8827300   176.1683000   
2225000000    -31.8434500   -120.6063000  17.5113100    38.7459100    -20.2228600   -111.1424000  -17.8065800   174.7536000   
2250000000    -31.5799000   -121.8851000  17.5112100    37.1535000    -20.2196000   -112.3870000  -17.7292300   173.1158000   
2275000000    -31.3488900   -123.0373000  17.5097200    35.5704500    -20.2166900   -113.6323000  -17.6548500   171.4832000   
2300000000    -31.1447400   -123.9668000  17.5087200    33.9646600    -20.2146100   -114.8772000  -17.5967900   169.8461000   
2325000000    -30.9375800   -124.4729000  17.5086000    32.3847500    -20.2124300   -116.1251000  -17.4911400   167.9252000   
2350000000    -30.7533100   -125.1719000  17.5094100    30.7930400    -20.2098600   -117.3703000  -17.4226400   166.1481000   
2375000000    -30.6181000   -125.8629000  17.5056200    29.2011800    -20.2070800   -118.6161000  -17.3504400   164.3540000   
2400000000    -30.4888800   -126.5435000  17.5031800    27.6100100    -20.2042500   -119.8670000  -17.2397300   162.5832000   
2425000000    -30.4041700   -127.7121000  17.5039800    26.0177400    -20.2017100   -121.1148000  -17.1913700   160.8229000   
2450000000    -30.3303800   -128.8975000  17.5041600    24.4226800    -20.1990500   -122.3644000  -17.1386800   158.9790000   
2475000000    -30.2440700   -130.4436000  17.5016200    22.8276200    -20.1954500   -123.6131000  -17.0969400   157.1330000   
2500000000    -30.1711300   -132.4176000  17.5028400    21.2338800    -20.1920300   -124.8583000  -17.0513600   155.3275000   
2525000000    -30.0940700   -134.5618000  17.5030500    19.6368700    -20.1883800   -126.1091000  -17.0217700   153.4905000   
2550000000    -29.9720900   -136.9547000  17.5002400    18.0525400    -20.1852000   -127.3604000  -16.9819400   152.1738000   
2575000000    -29.8092600   -139.3153000  17.4963900    16.4595700    -20.1824200   -128.6054000  -16.9375800   150.7808000   
2600000000    -29.6071600   -141.8577000  17.4979500    14.8686500    -20.1792300   -129.8537000  -16.9043700   149.2282000   
2625000000    -29.3766500   -144.5227000  17.4978700    13.2904400    -20.1760100   -131.0957000  -16.8483200   147.7373000   
2650000000    -29.1499500   -146.9261000  17.4956000    11.6907000    -20.1726000   -132.3427000  -16.8110200   146.2569000   
2675000000    -28.8895300   -149.3281000  17.4971700    10.0930500    -20.1691600   -133.5906000  -16.7822600   144.8161000   
2700000000    -28.6214600   -151.3980000  17.4947400    8.5150550     -20.1657100   -134.8347000  -16.7150600   143.5542000   
2725000000    -28.3621800   -153.4115000  17.4940100    6.9318330     -20.1622800   -136.0812000  -16.6458200   142.1069000   
2750000000    -28.1439900   -155.3408000  17.4937200    5.3302970     -20.1584100   -137.3327000  -16.5589000   140.5754000   
2775000000    -27.9147500   -156.7836000  17.4930600    3.7559740     -20.1546500   -138.5791000  -16.5017600   139.0852000   
2800000000    -27.6959500   -158.1497000  17.4925600    2.1500740     -20.1506200   -139.8272000  -16.4557300   137.4097000   
2825000000    -27.5042900   -159.4646000  17.4949500    0.5553887     -20.1467300   -141.0730000  -16.4155100   135.6954000   
2850000000    -27.3544100   -160.5542000  17.4892700    -1.0163600    -20.1432300   -142.3202000  -16.3631200   134.2571000   
2875000000    -27.2279300   -161.7178000  17.4906100    -2.6037640    -20.1387800   -143.5689000  -16.3182100   132.4131000   
2900000000    -27.1426600   -162.7761000  17.4903500    -4.1775610    -20.1340700   -144.8192000  -16.2462700   130.6412000   
2925000000    -27.0626400   -163.7830000  17.4898200    -5.7921620    -20.1295000   -146.0663000  -16.1965800   128.8159000   
2950000000    -27.0255400   -165.2694000  17.4905500    -7.3716750    -20.1248300   -147.3162000  -16.1289400   126.9625000   
2975000000    -26.9940300   -166.7334000  17.4923600    -8.9844930    -20.1200500   -148.5700000  -16.0965900   125.0928000   
3000000000    -26.9679900   -168.3406000  17.4883100    -10.5736600   -20.1153100   -149.8261000  -16.0738000   123.2282000   
3025000000    -26.9665000   -170.2387000  17.4889900    -12.1174400   -20.1101500   -151.0800000  -16.0419200   121.6686000   
3050000000    -26.9378800   -172.1819000  17.4889100    -13.7608400   -20.1060600   -152.3333000  -16.0345900   119.7689000   
3075000000    -26.8981900   -174.3183000  17.4892800    -15.3641500   -20.1016100   -153.5833000  -16.0304900   118.1366000   
3100000000    -26.8146100   -176.6037000  17.4894200    -16.9595100   -20.0966000   -154.8332000  -15.9807700   116.5393000   
3125000000    -26.7231500   -178.6235000  17.4881900    -18.5425400   -20.0920700   -156.0827000  -15.9738000   114.7813000   
3150000000    -26.6187300   179.4106000   17.4864100    -20.1510300   -20.0876400   -157.3294000  -15.9376600   113.1247000   
3175000000    -26.5217300   177.5466000   17.4854600    -21.7376600   -20.0827800   -158.5726000  -15.9059500   111.6079000   
3200000000    -26.3666200   176.0506000   17.4856200    -23.3257900   -20.0778200   -159.8176000  -15.8556500   110.0575000   
3225000000    -26.2557800   174.7059000   17.4847100    -24.9226500   -20.0730600   -161.0642000  -15.7989200   108.3513000   
3250000000    -26.1163900   173.5658000   17.4839800    -26.5028600   -20.0686800   -162.3067000  -15.7267500   106.6703000   
3275000000    -26.0392400   172.5381000   17.4821500    -28.0689300   -20.0638400   -163.5511000  -15.6675400   104.9205000   
3300000000    -25.9664600   171.6700000   17.4829700    -29.6714600   -20.0583100   -164.7984000  -15.5871600   103.1228000   
3325000000    -25.9454200   170.8713000   17.4798700    -31.2546500   -20.0535200   -166.0479000  -15.5383200   101.4245000   
3350000000    -25.9074000   170.0121000   17.4801900    -32.8587600   -20.0484800   -167.2957000  -15.4699100   99.6732400    
3375000000    -25.9452100   169.0038000   17.4788500    -34.4768600   -20.0433500   -168.5492000  -15.4219200   97.9232100    
3400000000    -25.9897700   168.0230000   17.4807400    -36.0774500   -20.0377400   -169.8021000  -15.3654100   95.9079000    
3425000000    -26.0716200   166.7756000   17.4789200    -37.6418000   -20.0322100   -171.0607000  -15.3220500   94.1393400    
3450000000    -26.1331600   165.2453000   17.4796100    -39.2511300   -20.0272900   -172.3180000  -15.2820900   92.1274900    
3475000000    -26.2077500   163.3765000   17.4758800    -40.8490300   -20.0219500   -173.5764000  -15.2465800   90.2305400    
3500000000    -26.2577600   161.3511000   17.4792000    -42.4634500   -20.0163200   -174.8364000  -15.2268000   88.4324100    
3525000000    -26.3322400   159.2215000   17.4777100    -44.0568400   -20.0106800   -176.0986000  -15.2394500   86.9194000    
3550000000    -26.3573000   156.9158000   17.4800500    -45.6559800   -20.0045700   -177.3571000  -15.2011300   85.1385100    
3575000000    -26.3646300   154.2321000   17.4784200    -47.2922900   -19.9988500   -178.6190000  -15.2231600   83.1820500    
3600000000    -26.3426000   151.5111000   17.4771300    -48.8985100   -19.9924900   -179.8796000  -15.2309600   81.5971300    
3625000000    -26.3012300   149.0194000   17.4774500    -50.4803300   -19.9855500   178.8585000   -15.1851500   79.8834300    
3650000000    -26.2225200   146.7116000   17.4778800    -52.0817600   -19.9795400   177.5992000   -15.1733500   78.2283400    
3675000000    -26.1208500   144.5090000   17.4779600    -53.7106900   -19.9728500   176.3423000   -15.1490800   76.6587300    
3700000000    -25.9935600   142.3776000   17.4768600    -55.3133300   -19.9670000   175.0868000   -15.1049600   75.0552500    
3725000000    -25.8651100   140.4459000   17.4745200    -56.9076700   -19.9608900   173.8314000   -15.1008100   73.5944100    
3750000000    -25.7445000   138.7109000   17.4747600    -58.5027000   -19.9544100   172.5768000   -15.0682900   71.8763000    
3775000000    -25.6326300   137.3067000   17.4739400    -60.0843100   -19.9477900   171.3169000   -15.0406700   70.2597400    
3800000000    -25.5323100   136.0401000   17.4725400    -61.6693600   -19.9425700   170.0635000   -14.9739200   68.7088400    
3825000000    -25.4804700   134.9476000   17.4741300    -63.2901000   -19.9363100   168.8059000   -14.9130400   66.8940900    
3850000000    -25.4490600   133.8194000   17.4750400    -64.9003200   -19.9299500   167.5499000   -14.8446700   65.0099200    
3875000000    -25.4520400   132.7241000   17.4705600    -66.4808700   -19.9227400   166.2876000   -14.8286400   63.3983000    
3900000000    -25.5067200   131.5574000   17.4726200    -68.0793300   -19.9157100   165.0220000   -14.7637700   61.4990000    
3925000000    -25.5697800   130.3887000   17.4727800    -69.7003700   -19.9095800   163.7632000   -14.7129700   59.6078800    
3950000000    -25.6700900   128.9450000   17.4760100    -71.2971300   -19.9030700   162.5034000   -14.6847100   57.5193100    
3975000000    -25.7613600   127.2432000   17.4750200    -72.9249100   -19.8953400   161.2361000   -14.6668200   55.4385900    
4000000000    -25.8594700   125.2222000   17.4705700    -74.5213600   -19.8883700   159.9698000   -14.6630800   53.5791800    
4025000000    -25.9709300   122.9611000   17.4741900    -76.1472500   -19.8815600   158.6944000   -14.6255400   51.6342400    
4050000000    -26.0866100   120.4829000   17.4728800    -77.7524800   -19.8738600   157.4209000   -14.6141400   49.7931300    
4075000000    -26.1593200   117.8407000   17.4696700    -79.3907400   -19.8669100   156.1449000   -14.6319000   47.7989500    
4100000000    -26.2132800   115.1441000   17.4690500    -81.0153400   -19.8588700   154.8676000   -14.6561400   45.9869400    
4125000000    -26.2200600   112.2049000   17.4754200    -82.6298300   -19.8513600   153.5918000   -14.6509500   44.0088800    
4150000000    -26.2338700   109.2791000   17.4739900    -84.2173300   -19.8440400   152.3143000   -14.6961300   42.0017300    
4175000000    -26.1991400   106.2895000   17.4719900    -85.8377000   -19.8356000   151.0395000   -14.7202800   40.2343000    
4200000000    -26.1511100   103.5895000   17.4735100    -87.4793000   -19.8275100   149.7633000   -14.7204900   38.4379800    
4225000000    -26.0690300   100.9826000   17.4681500    -89.1187500   -19.8209100   148.4859000   -14.7263000   36.8314400    
4250000000    -25.9875800   98.6766700    17.4719000    -90.7232000   -19.8128900   147.2128000   -14.6739500   35.1397900    
4275000000    -25.9386500   96.6626000    17.4676200    -92.3501700   -19.8061200   145.9320000   -14.6857100   33.2593800    
4300000000    -25.8798600   94.9986300    17.4682400    -93.9596600   -19.7982600   144.6585000   -14.6760800   31.5644200    
4325000000    -25.8591600   93.5682100    17.4676700    -95.5835300   -19.7896600   143.3784000   -14.6433200   29.7289100    
4350000000    -25.9100800   92.5678900    17.4599400    -97.2362400   -19.7830800   142.0959000   -14.6092300   27.6314600    
4375000000    -25.9733400   91.4935800    17.4650700    -98.8021500   -19.7744000   140.8220000   -14.4800400   25.9204700    
4400000000    -26.0965100   90.6449300    17.4691400    -100.4589000  -19.7658900   139.5386000   -14.3882300   23.8743900    
4425000000    -26.3002200   89.7728200    17.4625900    -102.0757000  -19.7587800   138.2483000   -14.3139100   22.0144000    
4450000000    -26.5038500   88.8208200    17.4694200    -103.6846000  -19.7504400   136.9706000   -14.2260000   20.0419600    
4475000000    -26.7804400   87.4381100    17.4676900    -105.3342000  -19.7422400   135.6859000   -14.1870600   17.7538800    
4500000000    -27.0653900   85.8786700    17.4619600    -106.9822000  -19.7347300   134.4040000   -14.1346100   15.4756800    
4525000000    -27.3584700   83.9612600    17.4574000    -108.5416000  -19.7268500   133.1221000   -14.0846800   13.4359100    
4550000000    -27.6479200   81.7381100    17.4652300    -110.1842000  -19.7203700   131.8299000   -13.9881800   11.3230800    
4575000000    -27.8844400   79.1045300    17.4601900    -111.8453000  -19.7138000   130.5568000   -13.9648000   9.1284570     
4600000000    -28.0718100   75.9001800    17.4548400    -113.4733000  -19.7062000   129.2790000   -13.9603600   7.3231770     
4625000000    -28.2454300   72.4380200    17.4543200    -115.0988000  -19.6993400   127.9939000   -13.9757600   5.3813850     
4650000000    -28.3004600   69.0270500    17.4504500    -116.6722000  -19.6921200   126.7151000   -14.0041000   3.5622110     
4675000000    -28.3383400   65.4057200    17.4519200    -118.3618000  -19.6840600   125.4332000   -14.0291900   1.1495330     
4700000000    -28.3004900   61.5763600    17.4497400    -119.9633000  -19.6755700   124.1426000   -14.0488000   -0.6667482    
4725000000    -28.2367500   58.2924300    17.4546900    -121.5425000  -19.6670100   122.8745000   -13.9947400   -2.4718360    
4750000000    -28.1808500   54.9640100    17.4528800    -123.1967000  -19.6576800   121.5885000   -13.9676900   -4.4657760    
4775000000    -28.1180400   52.3258200    17.4516400    -124.8531000  -19.6487100   120.3167000   -13.9837000   -6.3182950    
4800000000    -28.0501300   49.6008300    17.4461700    -126.4176000  -19.6383500   119.0364000   -13.9752600   -7.6995520    
4825000000    -28.1241300   47.5515900    17.4508300    -128.0630000  -19.6293400   117.7467000   -13.9557200   -9.7330570    
4850000000    -28.2069700   45.3994300    17.4459500    -129.6645000  -19.6209700   116.4621000   -13.9040500   -11.5322700   
4875000000    -28.3822100   43.6034500    17.4499200    -131.3185000  -19.6123600   115.1796000   -13.8235400   -13.6434200   
4900000000    -28.6362800   41.4883600    17.4420700    -132.9737000  -19.6034700   113.8821000   -13.7611300   -15.6782700   
4925000000    -28.9636400   39.6708000    17.4444900    -134.6106000  -19.5943000   112.5882000   -13.6635200   -17.6239500   
4950000000    -29.4214000   37.0783100    17.4396300    -136.2686000  -19.5880700   111.2734000   -13.5921700   -19.5979200   
4975000000    -29.9118900   34.5440200    17.4397100    -137.8746000  -19.5808900   109.9625000   -13.4946700   -21.5786100   
5000000000    -30.3878900   31.0077500    17.4360500    -139.5253000  -19.5733100   108.6589000   -13.4176200   -23.7312400   
5025000000    -30.8812200   27.1015200    17.4263400    -141.2487000  -19.5652300   107.3486000   -13.4025900   -26.1579100   
5050000000    -31.2813400   22.3214900    17.4264600    -142.8444000  -19.5567600   106.0439000   -13.2707400   -28.1696700   
5075000000    -31.6473100   16.8783500    17.4255300    -144.4737000  -19.5494600   104.7318000   -13.1666500   -30.2310100   
5100000000    -31.8423100   10.5826100    17.4246900    -146.1410000  -19.5422500   103.4193000   -13.1135500   -32.4613000   
5125000000    -31.8160200   4.1844670     17.4236100    -147.7665000  -19.5319300   102.1168000   -13.0734400   -34.4721100   
5150000000    -31.6898100   -2.4427150    17.4210900    -149.4249000  -19.5232000   100.8119000   -13.0549400   -36.8269400   
5175000000    -31.3945900   -8.5639400    17.4177600    -151.0776000  -19.5132900   99.5047600    -13.0555600   -38.9495500   
5200000000    -30.9814600   -14.6437200   17.4153200    -152.7264000  -19.5041500   98.1865200    -13.0449400   -41.0545100   
5225000000    -30.5520200   -19.6059500   17.4121100    -154.3633000  -19.4957300   96.8720000    -13.0386900   -42.9330600   
5250000000    -30.0817100   -23.9196800   17.4125400    -156.0210000  -19.4859400   95.5603800    -12.9965200   -44.9017200   
5275000000    -29.6755800   -27.5458500   17.4087700    -157.7392000  -19.4770800   94.2465700    -13.0042600   -47.1552200   
5300000000    -29.3199000   -30.8836700   17.4051600    -159.3391000  -19.4673500   92.9355300    -13.0159000   -48.8830600   
5325000000    -29.0419400   -33.8575600   17.4038600    -160.9913000  -19.4589900   91.6270800    -12.9810000   -50.8185300   
5350000000    -28.8178400   -36.7999600   17.3970600    -162.6293000  -19.4500800   90.3173400    -12.9765800   -52.8340900   
5375000000    -28.6278200   -39.3336000   17.4000000    -164.2938000  -19.4413000   89.0174600    -12.9156400   -54.8124500   
5400000000    -28.4989000   -42.5136100   17.3892500    -165.9326000  -19.4322100   87.7063100    -12.9140700   -56.6586000   
5425000000    -28.3911200   -45.9635500   17.3925400    -167.5750000  -19.4241800   86.3953900    -12.8124600   -58.4653700   
5450000000    -28.3189500   -49.6483800   17.3891800    -169.2256000  -19.4149900   85.0821200    -12.7501800   -60.6992100   
5475000000    -28.2399300   -53.6649000   17.3824000    -170.8866000  -19.4060600   83.7592600    -12.6889300   -62.6941000   
5500000000    -28.1516400   -58.5642400   17.3779900    -172.5536000  -19.3988600   82.4282800    -12.6194700   -64.7149800   
5525000000    -28.0064500   -63.4017400   17.3758000    -174.2021000  -19.3909800   81.0974000    -12.5192700   -66.8533400   
5550000000    -27.8580500   -68.5898400   17.3759000    -175.9025000  -19.3831400   79.7562000    -12.4042600   -69.1591000   
5575000000    -27.6079900   -73.8429000   17.3522200    -177.5697000  -19.3754300   78.4147600    -12.3873500   -71.4893000   
5600000000    -27.3260800   -78.9966900   17.3681800    -179.2179000  -19.3692200   77.0760400    -12.2110400   -73.4697300   
5625000000    -26.9511500   -83.8675200   17.3556100    179.0757000   -19.3627300   75.7382600    -12.1320800   -76.0506300   
5650000000    -26.5113700   -88.2966200   17.3460600    177.3767000   -19.3568300   74.4000100    -12.0528900   -78.4469900   
5675000000    -25.9750600   -92.2165300   17.3372200    175.7344000   -19.3488600   73.0508700    -12.0141900   -80.5019200   
5700000000    -25.5380300   -95.6507300   17.3376600    174.0575000   -19.3436800   71.6988100    -11.9311700   -82.6980100   
5725000000    -25.0652300   -98.4404400   17.3305100    172.3662000   -19.3380200   70.3586000    -11.8530000   -85.0731400   
5750000000    -24.6747000   -100.7759000  17.3137300    170.6014000   -19.3331700   69.0193300    -11.8394700   -87.4040900   
5775000000    -24.2893400   -102.9414000  17.3105500    169.0009000   -19.3267300   67.6621400    -11.7813800   -89.2460600   
5800000000    -24.0075800   -105.0763000  17.3084200    167.3061000   -19.3215500   66.3142700    -11.7311100   -91.2493400   
5825000000    -23.7609200   -107.1136000  17.2955300    165.6493000   -19.3164400   64.9734400    -11.7014700   -93.1142400   
5850000000    -23.5763000   -109.0677000  17.2868800    163.9490000   -19.3106500   63.6337300    -11.6354000   -95.1915100   
5875000000    -23.3588400   -111.4849000  17.2766800    162.3090000   -19.3032500   62.2952700    -11.5958400   -96.9878900   
5900000000    -23.2157600   -113.9255000  17.2770300    160.6462000   -19.2974900   60.9535900    -11.5159200   -98.7207000   
5925000000    -23.0453600   -116.8048000  17.2603600    158.9261000   -19.2922600   59.6033100    -11.4361400   -100.9073000  
5950000000    -22.8728000   -119.6140000  17.2648000    157.2479000   -19.2862700   58.2610500    -11.2962900   -102.6198000  
5975000000    -22.6584800   -122.5507000  17.2547800    155.6082000   -19.2806100   56.9233100    -11.2248500   -104.5903000  
6000000000    -22.4537100   -125.7147000  17.2337700    153.9323000   -19.2779000   55.5698200    -11.1660700   -106.6190000  
6025000000    -22.2206000   -128.5682000  17.2342800    152.2592000   -19.2723400   54.2150300    -11.0580000   -108.5178000  
6050000000    -21.9757000   -131.4362000  17.2231000    150.5482000   -19.2693400   52.8661300    -10.9619500   -110.5776000  
6075000000    -21.6800600   -134.4063000  17.2028300    148.9972000   -19.2649700   51.5033500    -10.9267300   -112.6618000  
6100000000    -21.3766800   -137.0036000  17.2079600    147.2557000   -19.2608200   50.1420200    -10.7610400   -114.5652000  
6125000000    -21.0962400   -139.6191000  17.1976100    145.5520000   -19.2599100   48.8066200    -10.6616100   -116.6335000  
6150000000    -20.8018700   -142.0609000  17.1763500    143.7969000   -19.2584200   47.4446200    -10.5557900   -119.0113000  
6175000000    -20.5214700   -144.2618000  17.1601000    142.1233000   -19.2573600   46.0999100    -10.5025900   -120.9975000  
6200000000    -20.2273700   -146.1417000  17.1509800    140.5881000   -19.2549700   44.7834100    -10.4962300   -122.7187000  
6225000000    -19.9721400   -147.8841000  17.1357800    138.8992000   -19.2524900   43.4505600    -10.4356300   -124.9046000  
6250000000    -19.7402700   -149.5448000  17.1161300    137.3279000   -19.2516700   42.1062000    -10.4366700   -126.8708000  
6275000000    -19.5359600   -150.9708000  17.1364500    135.5466000   -19.2491300   40.7799600    -10.3001000   -128.3250000  
6300000000    -19.3412400   -152.4777000  17.1179800    133.8770000   -19.2464600   39.4179000    -10.2413900   -130.2843000  
6325000000    -19.1554900   -153.9621000  17.0889500    132.1546000   -19.2421900   38.0649800    -10.2016600   -132.5288000  
6350000000    -18.9856600   -155.4478000  17.0907800    130.5266000   -19.2359300   36.7115500    -10.1610700   -134.0114000  
6375000000    -18.8790100   -157.3000000  17.0701400    128.8956000   -19.2367200   35.3596900    -10.1315500   -135.9967000  
6400000000    -18.7349500   -159.1758000  17.0616300    127.1799000   -19.2342100   33.9998900    -10.0682500   -137.7377000  
6425000000    -18.6183300   -161.0283000  17.0514500    125.5119000   -19.2326900   32.6700100    -9.9947900    -139.4002000  
6450000000    -18.4725600   -163.0209000  17.0426300    123.9865000   -19.2298900   31.3120300    -9.9997570    -140.9540000  
6475000000    -18.3026800   -165.0873000  17.0338900    122.1782000   -19.2264500   29.9749500    -9.8536980    -142.8727000  
6500000000    -18.1377600   -167.1174000  17.0187000    120.6165000   -19.2250600   28.6553600    -9.8078530    -144.7141000  
6525000000    -17.9407200   -169.0423000  17.0123300    118.9125000   -19.2226800   27.3220700    -9.6902380    -146.5216000  
6550000000    -17.6956400   -170.9338000  16.9938000    117.1734000   -19.2185700   25.9645100    -9.6351170    -148.4373000  
6575000000    -17.4670800   -172.7755000  16.9880900    115.5914000   -19.2168900   24.6092800    -9.5737430    -150.0912000  
6600000000    -17.2272900   -174.5085000  16.9776400    113.8474000   -19.2134900   23.2591800    -9.4635290    -152.2726000  
6625000000    -17.0055100   -176.2554000  16.9536500    112.1460000   -19.2148000   21.9100800    -9.3900130    -154.4536000  
6650000000    -16.7796700   -177.7457000  16.9386200    110.4262000   -19.2138200   20.5650800    -9.2880550    -156.4080000  
6675000000    -16.5560300   -179.1037000  16.9321000    108.7896000   -19.2125500   19.2221100    -9.2178740    -158.1598000  
6700000000    -16.3329800   179.5053000   16.8988100    107.1688000   -19.2112000   17.8717300    -9.1965670    -160.4413000  
6725000000    -16.1281100   178.1722000   16.8966400    105.4938000   -19.2101000   16.5080000    -9.1352430    -162.0046000  
6750000000    -15.9506900   176.9464000   16.9041800    103.8483000   -19.2115800   15.1719600    -9.1052240    -163.5700000  
6775000000    -15.7788400   175.7586000   16.8718300    102.0985000   -19.2131200   13.8182400    -9.0576400    -165.9294000  
6800000000    -15.6263100   174.6919000   16.8403900    100.4258000   -19.2111600   12.4850000    -9.0373820    -168.1711000  
6825000000    -15.4933400   173.5096000   16.8343400    98.8200600    -19.2102700   11.1316600    -9.0199850    -169.7922000  
6850000000    -15.3751400   172.1124000   16.8177100    97.1087000    -19.2097400   9.7490750     -8.9698080    -171.5983000  
6875000000    -15.2695000   170.6664000   16.8101100    95.4519300    -19.2093600   8.3822690     -8.9159060    -173.1256000  
6900000000    -15.1891400   169.1276000   16.7963000    93.7564300    -19.2105000   7.0565490     -8.8739640    -174.5993000  
6925000000    -15.0973400   167.5391000   16.7824700    92.1975800    -19.2090200   5.6929100     -8.8196290    -176.1333000  
6950000000    -15.0043700   165.8441000   16.7611500    90.3277400    -19.2071200   4.3395200     -8.7644810    -178.0639000  
6975000000    -14.9006500   163.9298000   16.7423100    88.8152800    -19.2090100   2.9695840     -8.7441540    -179.5227000  
7000000000    -14.7952600   162.0301000   16.7348900    87.1078900    -19.2096600   1.6063580     -8.6604520    178.6114000   
7025000000    -14.6782200   160.1664000   16.7198900    85.4028600    -19.2109100   0.2538065     -8.5729610    176.9653000   
7050000000    -14.5650100   158.3297000   16.6924200    83.7785600    -19.2115900   -1.1005000    -8.5324260    175.2739000   
7075000000    -14.4254400   156.4960000   16.6801300    82.0736500    -19.2119300   -2.4843110    -8.4283460    173.7469000   
7100000000    -14.2822400   154.6058000   16.6689200    80.3758200    -19.2138400   -3.8433820    -8.3594530    172.0989000   
7125000000    -14.1311500   152.7948000   16.6482000    78.6343500    -19.2170000   -5.1996760    -8.2647670    170.2674000   
7150000000    -13.9696700   151.1139000   16.6209500    77.0100300    -19.2189400   -6.5571590    -8.2174930    168.2879000   
7175000000    -13.7838400   149.4418000   16.6045800    75.3203600    -19.2223600   -7.9241760    -8.1461720    166.5459000   
7200000000    -13.6019200   147.8599000   16.5883700    73.6394300    -19.2260700   -9.2885310    -8.0624720    164.6947000   
7225000000    -13.4219600   146.4410000   16.5547200    71.9978700    -19.2321500   -10.6382400   -8.0109320    162.6631000   
7250000000    -13.2471900   145.2055000   16.5286600    70.2777900    -19.2363500   -11.9873100   -7.9579690    160.8479000   
7275000000    -13.0968300   144.0003000   16.5137800    68.6365500    -19.2456400   -13.3440400   -7.9213610    159.0658000   
7300000000    -12.9545100   142.9155000   16.5019000    67.0227900    -19.2513200   -14.6938100   -7.9118620    157.2058000   
7325000000    -12.8358600   141.8460000   16.4732400    65.3130600    -19.2564700   -16.0393100   -7.8837420    155.1944000   
7350000000    -12.7473000   140.8713000   16.4459600    63.8723000    -19.2605400   -17.3808600   -7.9349800    153.3160000   
7375000000    -12.6706500   139.7710000   16.4393200    62.0631000    -19.2635400   -18.7245700   -7.8597370    151.8978000   
7400000000    -12.6141100   138.5298000   16.4111700    60.4198100    -19.2661200   -20.0809500   -7.8287530    150.2367000   
7425000000    -12.5736500   137.1724000   16.3995800    58.6557500    -19.2695200   -21.4398500   -7.7671620    148.7978000   
7450000000    -12.5262700   135.7466000   16.3780300    56.9996700    -19.2662800   -22.7809900   -7.7383770    147.4878000   
7475000000    -12.4927800   134.0925000   16.3575400    55.3490800    -19.2680600   -24.1555700   -7.7144470    146.0005000   
7500000000    -12.4619400   132.4984000   16.3469800    53.7478900    -19.2699700   -25.5018500   -7.6745430    144.6024000   
7525000000    -12.4208400   130.7313000   16.3210800    52.1022800    -19.2716900   -26.8502000   -7.6211240    143.2776000   
7550000000    -12.3868200   129.0296000   16.2844200    50.5413800    -19.2748900   -28.1872100   -7.5981920    141.5773000   
7575000000    -12.3393600   127.3126000   16.2930400    48.8960900    -19.2761300   -29.5103900   -7.5609000    140.5241000   
7600000000    -12.2883700   125.5445000   16.2564500    47.0944600    -19.2787000   -30.8258700   -7.4684210    139.0052000   
7625000000    -12.2288300   123.8126000   16.2504600    45.4913600    -19.2815500   -32.1611400   -7.4259760    137.7485000   
7650000000    -12.1463700   122.2058000   16.2337000    43.7401800    -19.2831700   -33.4711200   -7.3477530    136.3807000   
7675000000    -12.0460200   120.5079000   16.2065400    42.1820600    -19.2854100   -34.8136300   -7.3244350    134.7657000   
7700000000    -11.9374300   118.8944000   16.1819500    40.5478700    -19.2906000   -36.1537500   -7.2638170    133.0096000   
7725000000    -11.8159000   117.4115000   16.1602200    38.8204300    -19.2958800   -37.4856200   -7.2181610    131.3080000   
7750000000    -11.6907800   116.0532000   16.1275000    37.2061900    -19.3023100   -38.8323600   -7.1680570    129.4775000   
7775000000    -11.5718600   114.8595000   16.0871600    35.6258800    -19.3106700   -40.1677700   -7.1488910    127.6053000   
7800000000    -11.4555100   113.8548000   16.0872800    34.0330300    -19.3186500   -41.4789300   -7.1324730    126.1284000   
7825000000    -11.3540000   112.8836000   16.0567100    32.3690400    -19.3253800   -42.8021500   -7.0945280    124.3051000   
7850000000    -11.2711800   112.0070000   16.0335600    30.9975600    -19.3308400   -44.1137800   -7.1590500    122.5001000   
7875000000    -11.2171800   111.1650000   16.0246400    29.2472800    -19.3356600   -45.4280200   -7.1376740    121.0536000   
7900000000    -11.1821200   110.2205000   15.9824800    27.5649000    -19.3398600   -46.7584500   -7.1233770    119.1926000   
7925000000    -11.1624900   109.2157000   15.9602600    25.9668100    -19.3433300   -48.0834900   -7.1189080    117.5623000   
7950000000    -11.1450800   108.0720000   15.9396900    24.3316000    -19.3427600   -49.4186100   -7.1059370    116.1478000   
7975000000    -11.1403900   106.7313000   15.9350200    22.6585000    -19.3434100   -50.7699700   -7.0678200    114.9268000   
8000000000    -11.1397400   105.3428000   15.9175000    20.9631300    -19.3452300   -52.1047100   -7.0461390    113.5797000   
8025000000    -11.1304100   103.7942000   15.8982000    19.3958100    -19.3471000   -53.4620600   -7.0384640    112.2468000   
8050000000    -11.1245800   102.1721000   15.8794900    17.7615500    -19.3526700   -54.7950400   -7.0239240    110.9769000   
8075000000    -11.1006300   100.5436000   15.8707500    16.0743800    -19.3558800   -56.1184200   -6.9930360    109.6333000   
8100000000    -11.0641900   98.8336300    15.8153900    14.4045700    -19.3576800   -57.4689200   -6.9417990    107.8047000   
8125000000    -11.0113300   97.0654500    15.8142500    12.9626800    -19.3602500   -58.8364100   -6.9352180    106.7293000   
8150000000    -10.9560700   95.3494700    15.8125300    11.1163800    -19.3664900   -60.1882200   -6.8460100    105.6314000   
8175000000    -10.8871700   93.6703300    15.7736300    9.3241740     -19.3705200   -61.5432200   -6.7611620    103.9951000   
8200000000    -10.8150200   92.0489100    15.7203800    7.7591140     -19.3772500   -62.8921800   -6.7485290    102.3041000   
8225000000    -10.7216200   90.5257000    15.7160500    6.2733250     -19.3804000   -64.2489800   -6.7611580    100.9049000   
8250000000    -10.6332400   89.0422100    15.6890900    4.5152210     -19.3870500   -65.6123100   -6.7082130    99.2616400    
8275000000    -10.5475200   87.6767300    15.6490600    2.9877330     -19.3961700   -66.9515400   -6.7097070    97.4130400    
8300000000    -10.4707600   86.4486600    15.6281600    1.2769360     -19.4056900   -68.2863200   -6.6666530    95.9065200    
8325000000    -10.3872800   85.2650600    15.6190000    -0.3262155    -19.4117400   -69.6338100   -6.6534040    94.5207700    
8350000000    -10.3187200   84.1564100    15.5945800    -2.0120700    -19.4213600   -70.9757300   -6.6348380    92.9756400    
8375000000    -10.2521000   83.1118900    15.5609700    -3.5482290    -19.4275900   -72.3113900   -6.6542680    91.2036700    
8400000000    -10.1959300   82.0821800    15.5384500    -5.1121560    -19.4325700   -73.6443600   -6.6715360    89.5424100    
8425000000    -10.1480300   81.0165800    15.5297800    -6.7582630    -19.4350500   -74.9916100   -6.6999890    88.0276600    
8450000000    -10.1157200   79.8892700    15.4902200    -8.3659660    -19.4386500   -76.3453400   -6.6934680    86.4100100    
8475000000    -10.0824500   78.7376500    15.4820500    -10.1556100   -19.4403500   -77.6844500   -6.6526580    85.1105000    
8500000000    -10.0455800   77.4930300    15.4503300    -11.8803000   -19.4400400   -79.0377500   -6.6115400    83.5931500    
8525000000    -10.0164500   76.1061800    15.4428200    -13.4478300   -19.4407100   -80.4151500   -6.6162180    82.3117400    
8550000000    -9.9905270    74.7039800    15.4244100    -15.1391500   -19.4427300   -81.7727700   -6.6083180    80.9222400    
8575000000    -9.9634970    73.2468700    15.3841900    -16.8240600   -19.4473600   -83.1464500   -6.5794670    79.3470500    
8600000000    -9.9274090    71.6684700    15.3573600    -18.3051500   -19.4533000   -84.5271000   -6.5860610    77.6565600    
8625000000    -9.8804010    70.0910400    15.3462500    -20.0479300   -19.4603600   -85.8953200   -6.5472780    76.3534800    
8650000000    -9.8228630    68.4763800    15.3268300    -21.7463100   -19.4681800   -87.2833300   -6.5017060    74.8632400    
8675000000    -9.7613040    66.8797500    15.2829200    -23.4460300   -19.4799800   -88.6557800   -6.4402790    73.2888400    
8700000000    -9.6902890    65.3625900    15.2659400    -25.1382300   -19.4922200   -90.0008100   -6.4056560    71.9438500    
8725000000    -9.6066380    63.9453000    15.2304900    -26.6915900   -19.5036900   -91.3331900   -6.3686940    70.3568600    
8750000000    -9.5132730    62.5393600    15.1976500    -28.3979700   -19.5135900   -92.6665100   -6.3444500    68.8088400    
8775000000    -9.4285040    61.3060100    15.1778400    -29.8269000   -19.5242200   -93.9786800   -6.3556320    67.3217100    
8800000000    -9.3541810    60.1242300    15.1503800    -31.5704400   -19.5352300   -95.3000700   -6.3223040    65.9688800    
8825000000    -9.2915910    59.0353900    15.0940600    -33.1991900   -19.5465900   -96.5864900   -6.3096770    64.3356200    
8850000000    -9.2367260    58.0187000    15.0737500    -34.8131100   -19.5563900   -97.8726900   -6.3049070    62.9959900    
8875000000    -9.1820960    57.0523500    15.0461400    -36.3457300   -19.5625300   -99.1569700   -6.3055840    61.5756000    
8900000000    -9.1384110    56.0200800    15.0311700    -38.0085900   -19.5673900   -100.4655000  -6.3079200    60.3383300    
8925000000    -9.1156210    55.0754500    14.9973500    -39.5441000   -19.5743200   -101.7612000  -6.3314920    58.9091900    
8950000000    -9.1042640    54.0948800    14.9857200    -41.0619300   -19.5802700   -103.0617000  -6.3692890    57.6906800    
8975000000    -9.0922890    53.1320800    14.9367200    -42.5886100   -19.5837200   -104.3539000  -6.3824380    56.3022000    
9000000000    -9.0940620    52.0748100    14.9296000    -44.1740200   -19.5871100   -105.6752000  -6.4203130    55.0659100    
9025000000    -9.0983050    50.9869600    14.9033500    -45.7129700   -19.5889400   -106.9918000  -6.4370740    53.7217600    
9050000000    -9.1042550    49.8093300    14.8995800    -47.4132300   -19.5915600   -108.3316000  -6.4416500    52.5316400    
9075000000    -9.1128840    48.6303300    14.8656300    -48.9190900   -19.5959300   -109.6610000  -6.4439530    51.0586900    
9100000000    -9.1119450    47.3784600    14.8475400    -50.7147300   -19.5990000   -110.9958000  -6.4354710    49.8732800    
9125000000    -9.1025850    46.0612600    14.8256400    -52.2590600   -19.6032100   -112.3406000  -6.4500530    48.4269100    
9150000000    -9.0901720    44.7175700    14.8018900    -53.9071900   -19.6081000   -113.6887000  -6.4562350    47.1641500    
9175000000    -9.0608700    43.3743600    14.7785300    -55.5959200   -19.6117000   -115.0330000  -6.4520350    45.7503800    
9200000000    -9.0364070    42.0556200    14.7419400    -57.1620900   -19.6216500   -116.3640000  -6.4591300    44.2063300    
9225000000    -8.9981690    40.7510000    14.7246800    -58.8816600   -19.6285100   -117.6869000  -6.4341100    42.8528400    
9250000000    -8.9567020    39.5029000    14.6754600    -60.5170100   -19.6360900   -119.0055000  -6.4171850    41.3029000    
9275000000    -8.9186170    38.3135100    14.6870200    -62.0937700   -19.6426200   -120.3193000  -6.4365950    40.2241500    
9300000000    -8.8861420    37.1765500    14.6218200    -63.6985400   -19.6492700   -121.6452000  -6.4371130    38.6191200    
9325000000    -8.8676690    36.0835600    14.5959100    -65.3107500   -19.6591300   -122.9562000  -6.4474780    37.3371200    
9350000000    -8.8479220    35.0857400    14.5698500    -66.8292500   -19.6669000   -124.2330000  -6.4680700    35.9506000    
9375000000    -8.8380470    34.0098800    14.5474300    -68.1193100   -19.6707300   -125.5578000  -6.5163260    34.5595800    
9400000000    -8.8384380    32.9496300    14.5507800    -69.7475800   -19.6756800   -126.8544000  -6.5396140    33.4406700    
9425000000    -8.8525870    31.8486200    14.5018000    -71.6238300   -19.6810600   -128.1689000  -6.5014720    32.1927500    
9450000000    -8.8695020    30.6911800    14.4903200    -72.9069400   -19.6873300   -129.4914000  -6.5613250    30.7652000    
9475000000    -8.8867180    29.5674100    14.4417600    -74.6594000   -19.6934900   -130.7807000  -6.5406260    29.6316300    
9500000000    -8.8942640    28.2923000    14.4401400    -76.1432300   -19.6929300   -132.1047000  -6.5753360    28.4056600    
9525000000    -8.9225500    26.9291000    14.4168400    -77.7198700   -19.6989100   -133.4602000  -6.6069810    27.1726900    
9550000000    -8.9423300    25.5861600    14.4107400    -79.4652900   -19.7039000   -134.7884000  -6.5935750    26.2034300    
9575000000    -8.9610000    24.1506000    14.3458900    -80.9634300   -19.7097000   -136.1567000  -6.5816640    24.6916100    
9600000000    -8.9595860    22.7095200    14.3528400    -82.6285900   -19.7131700   -137.5051000  -6.5926890    23.5829200    
9625000000    -8.9548530    21.2809500    14.3370500    -84.3046600   -19.7190700   -138.8407000  -6.5909130    22.4204300    
9650000000    -8.9309800    19.8188900    14.2994500    -85.8206900   -19.7218700   -140.1944000  -6.6106120    20.9601300    
9675000000    -8.9069050    18.4327600    14.2699900    -87.6610400   -19.7286800   -141.5347000  -6.5818540    19.6373400    
9700000000    -8.8692940    17.1308700    14.2795600    -89.3708500   -19.7342900   -142.9279000  -6.6113630    18.5075100    
9725000000    -8.8185980    15.8272200    14.2203500    -90.9198000   -19.7382700   -144.2867000  -6.5819370    17.1061700    
9750000000    -8.7731130    14.5985900    14.1979500    -92.4554600   -19.7438400   -145.6461000  -6.6096880    15.6133700    
9775000000    -8.7346120    13.4486500    14.1815800    -94.3329500   -19.7540200   -147.0086000  -6.6161880    13.8327100    
9800000000    -8.6935920    12.2593800    14.1199200    -95.9425400   -19.7586800   -148.3902000  -6.5950690    12.5460700    
9825000000    -8.6605210    11.1470500    14.1205300    -97.3286700   -19.7666600   -149.7615000  -6.6653480    11.1756900    
9850000000    -8.6290730    10.0891000    14.1181100    -99.1336700   -19.7754300   -151.1312000  -6.6650320    9.9356470     
9875000000    -8.6111420    8.9645890     14.0678100    -100.5582000  -19.7857900   -152.4589000  -6.6663480    8.3473700     
9900000000    -8.5991950    7.8702940     14.0409000    -102.2870000  -19.7958900   -153.8081000  -6.6563280    7.0478940     
9925000000    -8.5843190    6.7322180     14.0292500    -103.8617000  -19.8033600   -155.1487000  -6.6773160    5.8561980     
9950000000    -8.5686390    5.4087080     14.0251200    -105.2628000  -19.8095900   -156.6676000  -6.7199720    4.7226230     
9975000000    -8.5526700    3.9164190     13.9710000    -106.9780000  -19.8199100   -158.3867000  -6.6987030    3.3909120     
10000000000   -8.5389080    2.2128860     13.9340300    -108.4631000  -19.8312400   -160.2993000  -6.6956420    2.0565130     
10050000000   -8.5159410    0.2689732     13.8871700    -111.9797000  -19.8420400   -162.3998000  -6.6699080    0.0229634     
10100000000   -8.4757320    -1.7544140    13.8597800    -115.0698000  -19.8531200   -164.6600000  -6.6928390    -2.2580760    
10150000000   -8.4418900    -3.9081900    13.8211800    -118.3872000  -19.8670200   -167.1456000  -6.6764420    -4.3997410    
10200000000   -8.4057540    -6.1299190    13.7476200    -121.6424000  -19.8817300   -169.7943000  -6.6690150    -6.7558130    
10250000000   -8.3665050    -8.3761010    13.7110500    -125.0415000  -19.8944100   -172.4407000  -6.6660240    -8.8355600    
10300000000   -8.3244790    -10.5137500   13.6851600    -128.0635000  -19.9082900   -175.0671000  -6.7114880    -11.0277900   
10350000000   -8.2781220    -12.6385300   13.6108400    -131.2616000  -19.9192500   -177.7410000  -6.7589170    -13.1339700   
10400000000   -8.2365210    -14.6632900   13.5471300    -134.6954000  -19.9306200   179.6313000   -6.7774620    -15.4117400   
10450000000   -8.2125640    -16.7499300   13.5160200    -137.9075000  -19.9428400   176.9651000   -6.8496400    -17.8675100   
10500000000   -8.1729740    -18.8380000   13.4482300    -141.0790000  -19.9553700   174.3246000   -6.8858540    -20.4712000   
10550000000   -8.1355630    -20.9174400   13.3906000    -144.2882000  -19.9694800   171.6766000   -6.9259150    -22.6977400   
10600000000   -8.1036480    -23.0704200   13.3742200    -147.4143000  -19.9835000   169.0056000   -7.0030740    -25.0435000   
10650000000   -8.0737870    -25.3100600   13.3022000    -150.7934000  -19.9945200   166.3102000   -6.9709180    -27.2149800   
10700000000   -8.0532560    -27.5583900   13.2428500    -154.1486000  -20.0086900   163.6538000   -6.9626560    -29.3397000   
10750000000   -8.0341150    -29.8795600   13.1675300    -157.3060000  -20.0233500   160.9610000   -6.9720780    -31.8224600   
10800000000   -7.9987670    -32.2553400   13.1299200    -160.5056000  -20.0367900   158.2964000   -6.9671480    -34.1916000   
10850000000   -7.9675820    -34.6437300   13.0842100    -163.7619000  -20.0510500   155.6140000   -6.9645430    -36.1676100   
10900000000   -7.9259180    -37.0646400   13.0200000    -167.0934000  -20.0647200   152.9306000   -6.9794180    -38.3246700   
10950000000   -7.8728790    -39.4200300   12.9443600    -170.3912000  -20.0833500   150.2338000   -6.9715920    -40.6587100   
11000000000   -7.8000420    -41.7542800   12.8951200    -173.6389000  -20.1018000   147.5602000   -7.0224330    -42.8998900   
11050000000   -7.7186790    -43.9773900   12.8263800    -176.7885000  -20.1192800   144.8633000   -7.0704290    -45.2775200   
11100000000   -7.6389270    -46.1539000   12.7662400    179.7952000   -20.1362300   142.1807000   -7.1256240    -47.8380800   
11150000000   -7.5781010    -48.2742000   12.6923800    176.6315000   -20.1533300   139.4788000   -7.1427120    -50.5513600   
11200000000   -7.5229480    -50.4374300   12.6694000    173.3020000   -20.1742600   136.7649000   -7.1748100    -53.0833100   
11250000000   -7.4920790    -52.6808300   12.5737200    170.1360000   -20.1954300   134.0305000   -7.1386400    -55.7879600   
11300000000   -7.4809620    -55.0714300   12.5242200    166.8334000   -20.2145700   131.3134000   -7.1133430    -57.9121800   
11350000000   -7.4763520    -57.5445300   12.4366400    163.3989000   -20.2405500   128.6163000   -7.0359880    -60.0460600   
11400000000   -7.4678610    -60.1338200   12.3910200    160.1769000   -20.2663700   125.9363000   -6.9481270    -62.2183000   
11450000000   -7.4519140    -62.6230200   12.3251800    156.8643000   -20.2938600   123.2299000   -6.8713000    -63.9744300   
11500000000   -7.4219820    -65.1209400   12.2204100    153.6316000   -20.3208200   120.5539000   -6.8452610    -65.8246500   
11550000000   -7.3831890    -67.6235300   12.1723000    150.5329000   -20.3453100   117.8841000   -6.8927090    -67.8915600   
11600000000   -7.3158060    -70.0809900   12.1176000    147.2083000   -20.3706800   115.2167000   -6.8839740    -69.6138500   
11650000000   -7.2323100    -72.3969400   12.0459700    143.9922000   -20.3962200   112.5559000   -6.9120370    -71.5610100   
11700000000   -7.1555510    -74.6127600   11.9813700    140.6740000   -20.4179200   109.8759000   -6.9420290    -73.8242900   
11750000000   -7.0849400    -76.7554000   11.8973300    137.4143000   -20.4440500   107.2216000   -6.9221460    -76.7088200   
11800000000   -7.0305160    -78.9507500   11.8269700    134.2670000   -20.4708300   104.5664000   -6.9127620    -78.9254800   
11850000000   -6.9794780    -81.2098700   11.7560400    131.0195000   -20.4976900   101.9075000   -6.9194830    -81.1532500   
11900000000   -6.9227820    -83.4593600   11.6649800    127.8008000   -20.5261200   99.2823300    -6.8126600    -83.3462900   
11950000000   -6.8697550    -85.5645900   11.5939000    124.4326000   -20.5552200   96.6662100    -6.7416650    -84.7409500   
12000000000   -6.8226460    -87.5503200   11.5199000    121.2414000   -20.5806400   94.0606700    -6.7346120    -86.3886900   
12050000000   -6.7876860    -89.5695600   11.4230600    118.1431000   -20.6009900   91.4633800    -6.7419090    -88.4364300   
12100000000   -6.7552750    -91.7535700   11.3655000    114.9761000   -20.6138400   88.7706800    -6.7827010    -90.5608600   
12150000000   -6.7146860    -94.1437800   11.3082900    111.6873000   -20.6260600   86.0615900    -6.8120570    -92.5667300   
12200000000   -6.6696630    -96.6060000   11.2693500    108.4853000   -20.6395300   83.3230100    -6.8011070    -95.2092700   
12250000000   -6.6395790    -99.1369800   11.2218700    104.8378000   -20.6568700   80.5454900    -6.7436900    -98.4965300   
12300000000   -6.6294730    -101.8821000  11.1447800    101.3548000   -20.6773700   77.7526100    -6.6821780    -101.7525000  
12350000000   -6.6268530    -104.9081000  11.0560000    97.9391700    -20.7038500   74.9383500    -6.5929690    -104.7713000  
12400000000   -6.6033300    -108.0626000  10.9378000    94.5267800    -20.7395700   72.1354400    -6.4312660    -107.7295000  
12450000000   -6.5591550    -111.1217000  10.8435600    91.1885800    -20.7851400   69.4419300    -6.2584990    -110.0284000  
12500000000   -6.5035190    -113.9718000  10.7359500    87.9422700    -20.8310100   66.7955200    -6.0977300    -111.7455000  
12550000000   -6.4423150    -116.6534000  10.6336600    84.7862800    -20.8767700   64.2092900    -6.0352510    -113.4126000  
12600000000   -6.3760990    -119.2553000  10.5207800    81.7144500    -20.9139300   61.6484900    -6.0061560    -114.9154000  
12650000000   -6.2966790    -121.8699000  10.4220500    78.6583400    -20.9471500   59.0805200    -6.0089780    -116.6654000  
12700000000   -6.1979280    -124.4232000  10.3419700    75.6624300    -20.9812000   56.4825600    -6.0292620    -118.6838000  
12750000000   -6.1023970    -126.8851000  10.2631500    72.4127300    -21.0137300   53.8612600    -6.0548560    -121.0263000  
12800000000   -6.0211900    -129.3613000  10.2027000    69.0596400    -21.0492700   51.2090900    -6.0596920    -124.0933000  
12850000000   -5.9588120    -131.9445000  10.0843700    65.6088300    -21.0872300   48.5167600    -5.9971880    -127.1175000  
12900000000   -5.9030950    -134.6692000  9.9710550     62.3227700    -21.1305800   45.7979900    -5.9333370    -130.1742000  
12950000000   -5.8411040    -137.4314000  9.8443130     59.0254400    -21.1846300   43.1014500    -5.8241040    -133.2964000  
13000000000   -5.7761630    -140.0609000  9.7237070     55.6104800    -21.2454200   40.4756100    -5.6795440    -135.7424000  
13050000000   -5.7184500    -142.5796000  9.5947770     52.3735700    -21.3041500   37.9324800    -5.5322660    -137.8914000  
13100000000   -5.6575650    -144.9929000  9.4401050     49.5975200    -21.3576600   35.4248900    -5.4460420    -139.4442000  
13150000000   -5.5894900    -147.3488000  9.3248410     46.5231900    -21.4025800   32.9732200    -5.3716420    -140.9575000  
13200000000   -5.5126490    -149.5846000  9.2287450     43.6841800    -21.4413700   30.5589200    -5.3479140    -142.3832000  
13250000000   -5.4431700    -151.6945000  9.1349020     40.6936600    -21.4700100   28.1365800    -5.3641900    -143.9985000  
13300000000   -5.3910420    -153.8462000  9.0554490     37.8337400    -21.4918400   25.6829900    -5.3701500    -146.2905000  
13350000000   -5.3503130    -156.1598000  8.9685480     34.6556400    -21.5135900   23.1475800    -5.3853720    -148.8495000  
13400000000   -5.3182460    -158.6434000  8.8978550     31.4321900    -21.5354500   20.5426000    -5.3610080    -151.7812000  
13450000000   -5.2943130    -161.2820000  8.7980880     28.3460100    -21.5648600   17.9045800    -5.2687630    -155.0852000  
13500000000   -5.2750050    -164.0285000  8.6794640     25.0201200    -21.6018000   15.2394600    -5.1484530    -158.1190000  
13550000000   -5.2496250    -166.8806000  8.5537160     21.6363800    -21.6481700   12.5745500    -5.0586590    -160.8058000  
13600000000   -5.2098240    -169.7334000  8.4077030     18.4745500    -21.6970700   9.9568520     -4.9675330    -163.2743000  
13650000000   -5.1556540    -172.4746000  8.2738850     15.4528100    -21.7441800   7.4019830     -4.8815640    -165.4389000  
13700000000   -5.0921740    -175.0671000  8.1432460     12.4818900    -21.7828500   4.9059130     -4.8499220    -167.3716000  
13750000000   -5.0243740    -177.5375000  8.0366050     9.6066270     -21.8146000   2.4413140     -4.8415600    -169.3415000  
13800000000   -4.9621390    -179.9487000  7.9491200     6.8170360     -21.8374100   -0.0249871    -4.8309520    -171.5776000  
13850000000   -4.9120500    177.5753000   7.8664990     3.9412480     -21.8568300   -2.5167540    -4.8293730    -174.0286000  
13900000000   -4.8714110    174.9400000   7.8053980     0.8623107     -21.8712600   -5.0728200    -4.8400680    -177.2190000  
13950000000   -4.8331420    172.1003000   7.7345570     -2.3115060    -21.8919300   -7.7143490    -4.7821670    179.3190000   
14000000000   -4.7953660    169.1028000   7.6337180     -5.6558110    -21.9233500   -10.3925600   -4.7047600    175.7836000   
14050000000   -4.7596090    165.9946000   7.5029890     -9.0795920    -21.9678600   -13.0638200   -4.6040730    172.4789000   
14100000000   -4.7102410    162.8376000   7.3624110     -12.4185300   -22.0270300   -15.7144900   -4.4724470    169.4022000   
14150000000   -4.6441030    159.7900000   7.1899450     -15.4776400   -22.0927900   -18.2708100   -4.3633120    167.0308000   
14200000000   -4.5668050    156.9770000   7.0104970     -18.5657500   -22.1587200   -20.7417000   -4.2758980    164.9175000   
14250000000   -4.4907540    154.3942000   6.8552680     -21.3742700   -22.2246500   -23.1102400   -4.2061710    162.9674000   
14300000000   -4.4152360    151.9944000   6.7106230     -23.9648300   -22.2804900   -25.3744400   -4.1416860    161.3691000   
14350000000   -4.3400330    149.7445000   6.5853610     -26.4498400   -22.3244300   -27.6148600   -4.1097280    159.4949000   
14400000000   -4.2743350    147.5724000   6.4677620     -29.1227800   -22.3608900   -29.8395900   -4.0835390    157.5522000   
14450000000   -4.2237190    145.3725000   6.3814680     -31.8286100   -22.3883700   -32.0695200   -4.0467850    155.5152000   
14500000000   -4.1762720    143.0581000   6.2890920     -34.4655000   -22.4123200   -34.3967100   -4.0479340    153.2392000   
14550000000   -4.1292350    140.6510000   6.1758280     -37.3465800   -22.4340400   -36.7867900   -4.0481510    150.6141000   
14600000000   -4.0828490    138.2137000   6.0707110     -40.4424100   -22.4576100   -39.1855300   -4.0458410    147.7959000   
14650000000   -4.0350740    135.7915000   5.9697150     -43.3810900   -22.4909500   -41.6116800   -4.0224470    144.9587000   
14700000000   -3.9917560    133.4553000   5.8337780     -46.2891300   -22.5242200   -43.9991600   -3.9878140    141.9556000   
14750000000   -3.9546850    131.2286000   5.6762700     -49.1909300   -22.5479600   -46.3326700   -3.9326150    139.2044000   
14800000000   -3.9286750    129.0577000   5.5689890     -51.8717800   -22.5654300   -48.6846800   -3.8704070    136.8420000   
14850000000   -3.9140050    126.8869000   5.4871830     -54.3265000   -22.5740100   -51.0199900   -3.8344680    134.4603000   
14900000000   -3.9153270    124.6692000   5.3855970     -56.8579200   -22.5875700   -53.3409800   -3.7908770    132.0894000   
14950000000   -3.9284990    122.2975000   5.3073590     -59.6504700   -22.6006500   -55.7326000   -3.7469060    129.5358000   
15000000000   -3.9510810    119.6917000   5.2573890     -62.5376300   -22.6174200   -58.1680800   -3.7191460    126.4818000   
15050000000   -3.9637020    116.8928000   5.1452210     -65.4963300   -22.6352200   -60.6874500   -3.6844800    123.2913000   
15100000000   -3.9607360    113.9850000   4.9827020     -68.6587700   -22.6734300   -63.2802100   -3.6200350    120.1355000   
15150000000   -3.9439620    111.0535000   4.8192220     -72.0178000   -22.7291400   -65.8308900   -3.5934370    117.0247000   
15200000000   -3.9123850    108.2031000   4.6596160     -74.8596000   -22.7909300   -68.3002700   -3.5013800    114.3829000   
15250000000   -3.8648100    105.5476000   4.4846680     -77.4995000   -22.8367500   -70.7066800   -3.4310290    112.2102000   
15300000000   -3.8200460    103.1071000   4.3152950     -80.1752800   -22.8751500   -72.9594200   -3.4090380    110.3769000   
15350000000   -3.7794280    100.8107000   4.2293290     -82.7112700   -22.8934800   -75.1702000   -3.3647900    108.5556000   
15400000000   -3.7458940    98.5145000    4.1579420     -84.7958900   -22.9117900   -77.3893600   -3.3238250    106.8790000   
15450000000   -3.7235040    96.2082700    4.0603620     -87.1630400   -22.9063700   -79.5129900   -3.3435470    105.2570000   
15500000000   -3.7090490    93.7910000    3.9957780     -89.7412100   -22.8888300   -81.6997500   -3.3505280    103.0751000   
15550000000   -3.6942420    91.2204100    3.9844800     -92.4084100   -22.8686800   -83.9500600   -3.3352340    100.6189000   
15600000000   -3.6689930    88.5463600    3.8943060     -94.9442100   -22.8591600   -86.2325900   -3.3536670    98.3907100    
15650000000   -3.6275260    85.9068800    3.7831130     -97.7849900   -22.8576300   -88.6071000   -3.3678910    95.6280000    
15700000000   -3.5838720    83.4272800    3.6664240     -100.6862000  -22.8664300   -90.9170700   -3.3546960    93.0066100    
15750000000   -3.5425470    81.1191300    3.5773470     -103.2855000  -22.8571400   -93.2033900   -3.3433360    90.4050300    
15800000000   -3.5052600    78.9161100    3.4563010     -105.6781000  -22.8589600   -95.5069800   -3.3391910    87.7091700    
15850000000   -3.4850770    76.8333500    3.3331380     -108.2293000  -22.8461900   -97.7762100   -3.3162810    85.0426900    
15900000000   -3.4852940    74.6956300    3.2957810     -110.7172000  -22.8404400   -100.1134000  -3.2522900    82.4758900    
15950000000   -3.4980920    72.3849700    3.2651410     -113.1659000  -22.8254500   -102.4860000  -3.2399230    79.9103400    
16000000000   -3.5154830    69.8747600    3.1903450     -115.7668000  -22.7999200   -104.9184000  -3.1825140    77.2696300    
16050000000   -3.5336780    67.1046900    3.1148270     -118.6783000  -22.7795900   -107.3703000  -3.1497250    74.6951800    
16100000000   -3.5423930    64.0776200    3.0607640     -121.5510000  -22.7799600   -109.8573000  -3.1375850    72.3201800    
16150000000   -3.5267240    60.9842200    2.9795370     -124.3470000  -22.7809900   -112.4471000  -3.1010050    69.6217300    
16200000000   -3.4864850    58.0341100    2.8250320     -127.1080000  -22.8014900   -114.9409000  -3.0996400    67.5728100    
16250000000   -3.4385120    55.3925600    2.7112990     -129.8086000  -22.8218600   -117.3297000  -3.1110640    65.6394100    
16300000000   -3.3974970    53.0409100    2.5754010     -132.3309000  -22.8350000   -119.6851000  -3.1288380    62.9503600    
16350000000   -3.3649220    50.8817100    2.4488180     -134.6375000  -22.8383100   -121.9365000  -3.1562730    60.6665000    
16400000000   -3.3456860    48.8389700    2.3675640     -136.9820000  -22.8386700   -124.2985000  -3.1880680    58.1759800    
16450000000   -3.3459860    46.8774700    2.3265010     -139.4657000  -22.8344700   -126.5829000  -3.2122950    55.3111200    
16500000000   -3.3577840    44.8618300    2.3014260     -141.7434000  -22.8199700   -128.8226000  -3.1629460    52.4678400    
16550000000   -3.3789860    42.6971800    2.2158280     -144.4525000  -22.8028400   -131.1856000  -3.1318700    49.5426600    
16600000000   -3.4088900    40.2858700    2.1323350     -147.2520000  -22.7688300   -133.5275000  -3.0911430    46.8628400    
16650000000   -3.4252540    37.6165300    2.0839970     -149.8602000  -22.7560200   -135.9164000  -3.0363380    44.6593200    
16700000000   -3.4183560    34.8670300    2.0172720     -152.2711000  -22.7473200   -138.3146000  -3.0039570    42.7575600    
16750000000   -3.3904100    32.2341200    1.9414290     -154.6778000  -22.7409800   -140.6248000  -3.0062630    41.0495700    
16800000000   -3.3553620    29.8279600    1.8783100     -157.2251000  -22.7151500   -142.9622000  -3.0228550    39.1303500    
16850000000   -3.3303590    27.5589900    1.8087920     -159.6421000  -22.6858000   -145.3309000  -3.0718170    37.0325100    
16900000000   -3.3185910    25.3311800    1.7517120     -162.1201000  -22.6345500   -147.6344000  -3.1267360    34.6438100    
16950000000   -3.3084020    23.0726600    1.7236730     -164.6272000  -22.5977900   -149.9494000  -3.1700130    31.9622900    
17000000000   -3.3035290    20.8374800    1.7672140     -167.0814000  -22.5506100   -152.4065000  -3.1810930    29.0522200    
17050000000   -3.3143760    18.5865200    1.7343540     -169.6882000  -22.5070000   -154.8737000  -3.1858000    25.9499900    
17100000000   -3.3424380    16.1923300    1.6764050     -172.6481000  -22.4544400   -157.3901000  -3.2104790    22.6626500    
17150000000   -3.3753070    13.5030900    1.6251220     -175.7626000  -22.4279100   -159.9673000  -3.1951270    19.5508700    
17200000000   -3.3922620    10.6572100    1.5854710     -178.4604000  -22.4161500   -162.5334000  -3.1641730    16.5354200    
17250000000   -3.3865110    7.8441230     1.5090370     178.9632000   -22.4145600   -165.1157000  -3.1307760    13.8739200    
17300000000   -3.3746210    5.2026620     1.4109120     176.0888000   -22.4010200   -167.7545000  -3.1157500    11.4131800    
17350000000   -3.3671280    2.6749000     1.3257570     173.4285000   -22.3930600   -170.3078000  -3.1591020    9.1053250     
17400000000   -3.3697400    0.1784754     1.2570640     171.0658000   -22.3712700   -172.9009000  -3.1576270    6.8924640     
17450000000   -3.3767100    -2.3117770    1.2073580     168.3513000   -22.3472800   -175.3372000  -3.1852420    4.2601490     
17500000000   -3.3824880    -4.7870940    1.1908450     165.7556000   -22.3167200   -177.7575000  -3.2377350    1.3923580     
17550000000   -3.3933600    -7.2288270    1.1921030     163.1549000   -22.2804700   179.6324000   -3.2085280    -1.7261230    
17600000000   -3.4127970    -9.6649180    1.1340600     160.5318000   -22.2525600   177.0745000   -3.2096020    -4.6686880    
17650000000   -3.4420940    -12.1929400   1.0423250     157.6922000   -22.2166400   174.5128000   -3.1935780    -7.5041320    
17700000000   -3.4756430    -14.9100400   0.9786499     154.6917000   -22.1837000   172.0104000   -3.1422440    -10.4058300   
17750000000   -3.4862700    -17.7072300   0.9525282     152.1925000   -22.1569800   169.4052000   -3.1161170    -12.8170300   
17800000000   -3.4856980    -20.4272900   0.9190838     149.7040000   -22.1356700   166.6600000   -3.1128960    -15.0332900   
17850000000   -3.4869240    -23.0582100   0.8563072     146.8319000   -22.0969700   163.9707000   -3.1261580    -17.7253300   
17900000000   -3.4943170    -25.7327600   0.8209513     143.9621000   -22.0561700   161.4101000   -3.1086620    -20.2430000   
17950000000   -3.4936840    -28.4611500   0.7824246     141.0533000   -22.0010800   158.6750000   -3.1228680    -22.9905800   
18000000000   -3.4904990    -31.1606800   0.7508953     138.3213000   -21.9612700   155.9993000   -3.1573710    -25.8685600   
18050000000   -3.4824390    -33.7130300   0.7167005     135.4437000   -21.9237000   153.2913000   -3.1317510    -28.7078000   
18100000000   -3.4881080    -36.1979100   0.7033869     132.8657000   -21.8883400   150.7232000   -3.1387010    -31.4122700   
18150000000   -3.4985050    -38.7144400   0.6496524     130.1332000   -21.8378900   148.0432000   -3.1808890    -34.3387200   
18200000000   -3.5105020    -41.3026800   0.5929108     127.3789000   -21.8286300   145.3008000   -3.1934120    -37.3936300   
18250000000   -3.5216220    -43.8684200   0.5712569     124.7994000   -21.7915500   142.6158000   -3.1645080    -40.4869000   
18300000000   -3.5354450    -46.4562700   0.5198174     122.0699000   -21.7852600   140.0703000   -3.1766640    -43.4129600   
18350000000   -3.5426030    -49.0560700   0.4513038     119.2165000   -21.7694500   137.4787000   -3.1329610    -46.6395900   
18400000000   -3.5514840    -51.7186700   0.3701125     116.5158000   -21.7398900   134.8053000   -3.1165620    -49.0592000   
18450000000   -3.5594490    -54.4657300   0.3137293     113.8023000   -21.7247600   132.1611000   -3.1239860    -51.4927100   
18500000000   -3.5555900    -57.2525200   0.2797974     111.1165000   -21.7280500   129.5466000   -3.1280940    -54.1894500   
18550000000   -3.5448400    -59.9472800   0.2517673     108.3017000   -21.6909300   126.9522000   -3.1124120    -56.8378700   
18600000000   -3.5434730    -62.5916100   0.1872584     105.5250000   -21.6775200   124.3319000   -3.1393910    -59.6375600   
18650000000   -3.5502050    -65.2165900   0.1337512     102.5320000   -21.6476700   121.6602000   -3.1687860    -62.9561800   
18700000000   -3.5597650    -67.8236600   0.0762427     99.9644400    -21.6151600   118.9750000   -3.1180040    -65.3779100   
18750000000   -3.5812900    -70.4416000   0.0346393     97.1850100    -21.5595500   116.3183000   -3.0722060    -68.1758000   
18800000000   -3.6000830    -73.1644900   0.0034955     94.6402100    -21.5137300   113.4827000   -3.0857680    -70.4925900   
18850000000   -3.6211550    -75.9849200   0.0005689     92.0076200    -21.4395400   110.7106000   -3.0446400    -72.8775800   
18900000000   -3.6432390    -78.9164700   0.0014815     89.0617300    -21.3996800   107.7150000   -3.0927970    -75.4539100   
18950000000   -3.6597820    -81.9677100   0.0272921     86.0544600    -21.3407300   104.6688000   -3.1273010    -78.5069000   
19000000000   -3.6656840    -85.1555100   0.0098465     82.8906200    -21.2973500   101.6444000   -3.1285050    -82.1568800   
19050000000   -3.6584940    -88.4290700   -0.0635716    79.5535100    -21.2773000   98.5048400    -3.1712520    -85.5773000   
19100000000   -3.6369220    -91.7177400   -0.1103716    76.3248300    -21.2802200   95.5820800    -3.1427760    -89.1875100   
19150000000   -3.6107160    -94.8817900   -0.1861420    73.1823700    -21.2876500   92.6630200    -3.1089790    -92.8111700   
19200000000   -3.5854900    -97.9140200   -0.2723503    70.3672900    -21.3079200   89.7888000    -3.0480920    -95.4109200   
19250000000   -3.5622670    -100.8912000  -0.3667074    67.6314600    -21.2973600   87.0600400    -3.0248580    -97.8302800   
19300000000   -3.5407750    -103.8907000  -0.4319783    64.7847200    -21.3014400   84.3591500    -3.0054270    -100.6334000  
19350000000   -3.5174430    -106.9138000  -0.5026722    62.0773600    -21.2819500   81.4368700    -3.0202060    -102.8582000  
19400000000   -3.4878280    -109.9168000  -0.5611554    59.3157100    -21.2633100   78.5293700    -3.0487230    -105.1555000  
19450000000   -3.4465310    -112.8347000  -0.6087351    56.2451600    -21.2637800   75.7107800    -3.0769400    -108.0863000  
19500000000   -3.4085870    -115.6391000  -0.6343518    53.0968100    -21.2538500   72.7265900    -3.0401760    -111.2276000  
19550000000   -3.3711750    -118.3456000  -0.7236574    50.1213600    -21.2304800   69.6137400    -3.0703930    -114.4741000  
19600000000   -3.3365110    -120.9151000  -0.8202001    47.2907500    -21.2271300   66.5771200    -3.0995140    -118.0296000  
19650000000   -3.3012980    -123.3209000  -0.9305720    44.2941600    -21.2602700   63.4184200    -3.0481440    -121.5718000  
19700000000   -3.2794680    -125.5937000  -0.9705834    41.4504800    -21.2937200   60.3628800    -2.9691320    -125.1472000  
19750000000   -3.2747270    -127.8053000  -1.0800640    38.6489500    -21.2883300   57.4978700    -2.9219580    -128.2575000  
19800000000   -3.2884210    -130.0979000  -1.1660220    35.7732400    -21.2880000   54.4727100    -2.8474560    -131.2811000  
19850000000   -3.3111070    -132.6048000  -1.2086290    33.0831800    -21.2863200   51.6163600    -2.7751980    -133.7352000  
19900000000   -3.3343230    -134.8236000  -1.2565550    30.4966300    -21.3091600   49.2114000    -2.7111560    -136.2747000  
19950000000   -3.3588650    -136.7700000  -1.3362880    27.8801200    -21.3243800   47.1885700    -2.6588280    -138.4251000  
20000000000   -3.3777000    -138.4342000  -1.3891070    25.0974900    -21.3142300   45.6892100    -2.6265760    -140.2826000  
